block,response,rt,type,keyPressed,correctKey,trial
1.0,1.0,0.49584293365478516,1.0,j,j,1
1.0,1.0,0.48049116134643555,1.0,k,k,2
1.0,1.0,0.446666955947876,1.0,h,h,3
1.0,0.0,0.5627861022949219,1.0,j,k,4
1.0,1.0,0.326732873916626,1.0,l,l,5
1.0,1.0,0.45868802070617676,1.0,k,k,6
1.0,1.0,0.5104858875274658,1.0,h,h,7
1.0,1.0,0.4562962055206299,1.0,l,l,8
1.0,1.0,0.6797270774841309,1.0,k,k,9
1.0,1.0,0.44106101989746094,1.0,j,j,10
1.0,1.0,0.4411189556121826,1.0,l,l,11
1.0,1.0,0.41583800315856934,1.0,h,h,12
1.0,1.0,0.4104158878326416,1.0,l,l,13
1.0,1.0,0.45623302459716797,1.0,j,j,14
1.0,1.0,0.3443448543548584,1.0,k,k,15
1.0,1.0,0.43938207626342773,1.0,j,j,16
1.0,1.0,0.3792140483856201,1.0,l,l,17
1.0,1.0,0.4507439136505127,1.0,k,k,18
1.0,1.0,0.1919858455657959,1.0,l,l,19
1.0,1.0,0.4856607913970947,1.0,h,h,20
1.0,1.0,0.4926259517669678,1.0,k,k,21
1.0,1.0,0.39725685119628906,1.0,l,l,22
1.0,1.0,0.6166861057281494,1.0,h,h,23
1.0,1.0,0.5993850231170654,1.0,k,k,24
1.0,1.0,0.4810669422149658,1.0,j,j,25
1.0,1.0,0.48903822898864746,1.0,h,h,26
1.0,0.0,0.4682590961456299,1.0,l,k,27
1.0,1.0,0.5156919956207275,1.0,j,j,28
1.0,1.0,0.49099302291870117,1.0,h,h,29
1.0,1.0,0.43309688568115234,1.0,k,k,30
1.0,1.0,0.35307908058166504,1.0,l,l,31
1.0,1.0,0.4213569164276123,1.0,h,h,32
1.0,1.0,0.5673630237579346,1.0,j,j,33
1.0,1.0,0.5191850662231445,1.0,h,h,34
1.0,1.0,0.6261489391326904,1.0,l,l,35
1.0,1.0,0.6528468132019043,1.0,j,j,36
1.0,1.0,0.4059741497039795,1.0,k,k,37
1.0,1.0,0.6647708415985107,1.0,j,j,38
1.0,1.0,0.4307861328125,1.0,k,k,39
1.0,0.0,0.415539026260376,1.0,l,j,40
1.0,1.0,0.5253920555114746,1.0,h,h,41
1.0,1.0,0.39702391624450684,1.0,l,l,42
1.0,1.0,0.4453761577606201,1.0,h,h,43
1.0,1.0,0.40596985816955566,1.0,k,k,44
1.0,1.0,0.45932507514953613,1.0,h,h,45
1.0,1.0,0.42209601402282715,1.0,l,l,46
1.0,1.0,0.4889249801635742,1.0,h,h,47
1.0,1.0,0.5193037986755371,1.0,j,j,48
1.0,0.0,0.4449729919433594,1.0,k,l,49
1.0,1.0,0.3583648204803467,1.0,k,k,50
1.0,1.0,0.5169792175292969,1.0,j,j,51
1.0,1.0,0.43824315071105957,1.0,h,h,52
1.0,1.0,0.523115873336792,1.0,l,l,53
1.0,1.0,0.4895029067993164,1.0,j,j,54
1.0,0.0,0.36393284797668457,1.0,k,l,55
1.0,1.0,0.4607980251312256,1.0,k,k,56
1.0,1.0,0.44368600845336914,1.0,l,l,57
1.0,1.0,0.4584529399871826,1.0,h,h,58
1.0,0.0,0.49649500846862793,1.0,k,l,59
1.0,1.0,0.5551221370697021,1.0,h,h,60
1.0,1.0,0.5887560844421387,1.0,l,l,61
1.0,1.0,0.678886890411377,1.0,j,j,62
1.0,1.0,0.7761709690093994,1.0,l,l,63
1.0,1.0,0.5122778415679932,1.0,h,h,64
1.0,0.0,0.4757990837097168,1.0,k,j,65
1.0,1.0,0.4660370349884033,1.0,h,h,66
1.0,1.0,0.4787931442260742,1.0,l,l,67
1.0,1.0,0.47046804428100586,1.0,j,j,68
1.0,1.0,0.5016660690307617,1.0,h,h,69
1.0,1.0,0.5900099277496338,1.0,l,l,70
1.0,0.0,0.4794278144836426,1.0,k,j,71
1.0,1.0,0.5346860885620117,1.0,h,h,72
1.0,1.0,0.4994199275970459,1.0,l,l,73
1.0,1.0,0.5103871822357178,1.0,k,k,74
1.0,1.0,0.5408899784088135,1.0,j,j,75
1.0,0.0,0.43717098236083984,1.0,l,k,76
1.0,1.0,0.5024750232696533,1.0,j,j,77
1.0,1.0,0.4604179859161377,1.0,h,h,78
1.0,1.0,0.4986441135406494,1.0,l,l,79
1.0,1.0,0.5058999061584473,1.0,h,h,80
1.0,0.0,0.5472328662872314,1.0,k,j,81
1.0,1.0,0.4553050994873047,1.0,k,k,82
1.0,1.0,0.34780192375183105,1.0,l,l,83
1.0,1.0,0.4996488094329834,1.0,j,j,84
1.0,1.0,0.47624802589416504,1.0,l,l,85
1.0,1.0,0.5024139881134033,1.0,h,h,86
1.0,1.0,0.47580504417419434,1.0,k,k,87
1.0,1.0,0.5322320461273193,1.0,j,j,88
1.0,1.0,0.45259714126586914,1.0,k,k,89
1.0,0.0,0.48720598220825195,1.0,h,j,90
1.0,1.0,0.506943941116333,1.0,h,h,91
1.0,1.0,0.48496508598327637,1.0,j,j,92
1.0,1.0,0.4949989318847656,1.0,l,l,93
1.0,1.0,0.46462488174438477,1.0,h,h,94
1.0,1.0,0.47597289085388184,1.0,k,k,95
1.0,1.0,0.466357946395874,1.0,h,h,96
1.0,1.0,0.49082207679748535,1.0,j,j,97
1.0,1.0,0.5303499698638916,1.0,h,h,98
1.0,1.0,0.45271897315979004,1.0,l,l,99
1.0,1.0,0.5155379772186279,1.0,j,j,100
1.0,1.0,0.41510796546936035,1.0,l,l,101
1.0,1.0,0.469484806060791,1.0,k,k,102
1.0,1.0,0.3959920406341553,1.0,l,l,103
1.0,1.0,0.545414924621582,1.0,h,h,104
1.0,1.0,0.4961409568786621,1.0,j,j,105
1.0,0.0,0.46512293815612793,1.0,j,h,106
1.0,1.0,0.4068748950958252,1.0,l,l,107
1.0,1.0,0.4503960609436035,1.0,h,h,108
1.0,1.0,0.5734679698944092,1.0,j,j,109
1.0,1.0,0.48487091064453125,1.0,h,h,110
1.0,1.0,0.39438796043395996,1.0,k,k,111
1.0,0.0,0.32935500144958496,1.0,l,j,112
1.0,1.0,0.6144330501556396,1.0,l,l,113
1.0,0.0,0.45029711723327637,1.0,j,h,114
1.0,1.0,0.3852829933166504,1.0,l,l,115
1.0,1.0,0.37526893615722656,1.0,k,k,116
1.0,1.0,0.34647607803344727,1.0,l,l,117
1.0,1.0,0.3752458095550537,1.0,j,j,118
1.0,1.0,0.4725470542907715,1.0,l,l,119
1.0,1.0,0.513808012008667,1.0,k,k,120
1.0,1.0,0.44005513191223145,1.0,h,h,121
1.0,0.0,0.4265608787536621,1.0,k,l,122
1.0,1.0,0.4255399703979492,1.0,j,j,123
1.0,1.0,0.40944790840148926,1.0,l,l,124
1.0,1.0,0.4021627902984619,1.0,k,k,125
1.0,1.0,0.41561102867126465,1.0,h,h,126
1.0,1.0,0.41514015197753906,1.0,j,j,127
1.0,0.0,0.4493260383605957,1.0,l,k,128
1.0,0.0,0.43349504470825195,1.0,h,j,129
1.0,1.0,0.518319845199585,1.0,k,k,130
1.0,1.0,0.46991801261901855,1.0,h,h,131
1.0,1.0,0.5563108921051025,1.0,j,j,132
1.0,1.0,0.4595019817352295,1.0,l,l,133
1.0,1.0,0.5226709842681885,1.0,j,j,134
1.0,1.0,0.47373104095458984,1.0,k,k,135
1.0,1.0,0.4855799674987793,1.0,j,j,136
1.0,1.0,0.39069700241088867,1.0,k,k,137
1.0,1.0,0.46436500549316406,1.0,h,h,138
1.0,1.0,0.4056568145751953,1.0,l,l,139
1.0,1.0,0.5212059020996094,1.0,h,h,140
1.0,1.0,0.47231101989746094,1.0,k,k,141
1.0,1.0,0.583981990814209,1.0,j,j,142
1.0,1.0,0.4586319923400879,1.0,l,l,143
1.0,1.0,0.5471169948577881,1.0,h,h,144
1.0,1.0,0.4757111072540283,1.0,l,l,145
1.0,1.0,0.4089221954345703,1.0,h,h,146
1.0,1.0,0.46107912063598633,1.0,k,k,147
1.0,1.0,0.31496310234069824,1.0,l,l,148
1.0,1.0,0.5805230140686035,1.0,k,k,149
1.0,1.0,0.4478950500488281,1.0,h,h,150
1.0,1.0,0.46024012565612793,1.0,k,k,151
1.0,1.0,0.44699907302856445,1.0,l,l,152
1.0,1.0,0.4182589054107666,1.0,h,h,153
1.0,1.0,0.48684191703796387,1.0,l,l,154
1.0,1.0,0.44158411026000977,1.0,k,k,155
1.0,1.0,0.47115302085876465,1.0,h,h,156
1.0,0.0,0.37760400772094727,1.0,k,l,157
1.0,1.0,0.34029507637023926,1.0,k,k,158
1.0,1.0,0.49419212341308594,1.0,j,j,159
1.0,1.0,0.44855594635009766,1.0,h,h,160
1.0,1.0,0.3847320079803467,1.0,l,l,161
1.0,1.0,0.417788028717041,1.0,k,k,162
1.0,1.0,0.3639681339263916,1.0,j,j,163
1.0,1.0,0.4656989574432373,1.0,l,l,164
1.0,1.0,0.34302806854248047,1.0,k,k,165
1.0,1.0,0.28269195556640625,1.0,j,j,166
1.0,1.0,0.4676480293273926,1.0,l,l,167
1.0,1.0,0.5594379901885986,1.0,j,j,168
1.0,0.0,0.4318850040435791,1.0,k,l,169
1.0,1.0,0.38666510581970215,1.0,k,k,170
1.0,1.0,0.4068179130554199,1.0,h,h,171
1.0,1.0,0.5922081470489502,1.0,j,j,172
1.0,1.0,0.7205309867858887,1.0,h,h,173
1.0,1.0,0.536689043045044,1.0,l,l,174
1.0,1.0,0.5169320106506348,1.0,h,h,175
1.0,1.0,0.5485031604766846,1.0,k,k,176
1.0,1.0,0.5553491115570068,1.0,h,h,177
1.0,1.0,0.5616919994354248,1.0,j,j,178
1.0,1.0,0.4696919918060303,1.0,l,l,179
1.0,1.0,0.5261650085449219,1.0,h,h,180
1.0,1.0,0.40743207931518555,1.0,k,k,181
1.0,1.0,0.48588085174560547,1.0,j,j,182
1.0,1.0,0.4657120704650879,1.0,l,l,183
1.0,1.0,0.44028615951538086,1.0,j,j,184
1.0,1.0,0.5386888980865479,1.0,l,l,185
1.0,1.0,0.4336268901824951,1.0,j,j,186
1.0,1.0,0.5784180164337158,1.0,h,h,187
1.0,1.0,0.4297628402709961,1.0,k,k,188
1.0,1.0,0.5104260444641113,1.0,h,h,189
1.0,0.0,0.4641249179840088,1.0,l,k,190
1.0,1.0,0.550947904586792,1.0,l,l,191
1.0,1.0,0.4641001224517822,1.0,h,h,192
1.0,1.0,0.5807280540466309,1.0,j,j,193
1.0,1.0,0.5257492065429688,1.0,h,h,194
1.0,1.0,0.54522705078125,1.0,j,j,195
1.0,1.0,0.5803840160369873,1.0,k,k,196
1.0,1.0,0.490617036819458,1.0,j,j,197
1.0,1.0,0.44186997413635254,1.0,l,l,198
1.0,1.0,0.3766641616821289,1.0,k,k,199
1.0,1.0,0.292680025100708,1.0,j,j,200
1.0,1.0,0.32237911224365234,1.0,k,k,201
1.0,1.0,0.5283617973327637,1.0,l,l,202
1.0,1.0,0.34989309310913086,1.0,k,k,203
1.0,1.0,0.34317779541015625,1.0,j,j,204
1.0,1.0,0.32206106185913086,1.0,k,k,205
1.0,1.0,0.36357808113098145,1.0,j,j,206
1.0,1.0,0.3855559825897217,1.0,h,h,207
1.0,1.0,0.46152400970458984,1.0,l,l,208
1.0,1.0,0.33959507942199707,1.0,k,k,209
1.0,1.0,0.5193889141082764,1.0,j,j,210
1.0,1.0,0.34569811820983887,1.0,k,k,211
1.0,1.0,0.49495387077331543,1.0,h,h,212
1.0,1.0,0.4899570941925049,1.0,l,l,213
1.0,1.0,0.645258903503418,1.0,h,h,214
1.0,1.0,0.5002801418304443,1.0,j,j,215
1.0,1.0,0.82423996925354,1.0,h,h,216
1.0,1.0,0.5603101253509521,1.0,k,k,217
1.0,1.0,0.3484039306640625,1.0,l,l,218
1.0,1.0,0.4652750492095947,1.0,k,k,219
1.0,1.0,0.4400320053100586,1.0,h,h,220
1.0,1.0,0.6252341270446777,1.0,l,l,221
1.0,1.0,0.42144012451171875,1.0,j,j,222
1.0,1.0,0.34781408309936523,1.0,k,k,223
1.0,1.0,0.5201470851898193,1.0,l,l,224
1.0,1.0,0.4042830467224121,1.0,h,h,225
1.0,1.0,0.4892709255218506,1.0,l,l,226
1.0,1.0,0.6421768665313721,1.0,k,k,227
1.0,1.0,0.3423750400543213,1.0,j,j,228
1.0,1.0,0.36132311820983887,1.0,k,k,229
1.0,1.0,0.363461971282959,1.0,h,h,230
1.0,1.0,0.5517768859863281,1.0,j,j,231
1.0,1.0,0.5256919860839844,1.0,h,h,232
1.0,0.0,0.5376760959625244,1.0,h,j,233
1.0,1.0,0.42244410514831543,1.0,l,l,234
1.0,1.0,0.2734830379486084,1.0,k,k,235
1.0,1.0,0.45479488372802734,1.0,h,h,236
1.0,1.0,0.5788531303405762,1.0,j,j,237
1.0,1.0,0.5745949745178223,1.0,k,k,238
1.0,1.0,0.4818110466003418,1.0,l,l,239
1.0,1.0,0.5502760410308838,1.0,h,h,240
1.0,1.0,0.3460118770599365,1.0,k,k,241
1.0,1.0,0.4754822254180908,1.0,l,l,242
1.0,1.0,0.5130131244659424,1.0,k,k,243
1.0,1.0,0.48459911346435547,1.0,h,h,244
1.0,1.0,0.485339879989624,1.0,l,l,245
1.0,1.0,0.9462180137634277,1.0,j,j,246
1.0,1.0,0.4365079402923584,1.0,l,l,247
1.0,1.0,0.46086692810058594,1.0,j,j,248
1.0,1.0,0.3641011714935303,1.0,k,k,249
1.0,1.0,0.5802571773529053,1.0,h,h,250
1.0,1.0,0.5722911357879639,1.0,j,j,251
1.0,1.0,0.31836700439453125,1.0,k,k,252
1.0,1.0,0.3201138973236084,1.0,j,j,253
1.0,1.0,0.30094480514526367,1.0,k,k,254
1.0,0.0,0.5291080474853516,1.0,k,l,255
1.0,1.0,0.48930788040161133,1.0,j,j,256
2.0,1.0,0.4881248474121094,1.0,k,k,257
2.0,1.0,0.5056641101837158,1.0,j,j,258
2.0,1.0,0.4634549617767334,1.0,l,l,259
2.0,1.0,0.4401259422302246,1.0,j,j,260
2.0,1.0,0.41651201248168945,1.0,h,h,261
2.0,1.0,0.3232231140136719,1.0,j,j,262
2.0,1.0,0.4839198589324951,1.0,l,l,263
2.0,1.0,0.4876091480255127,1.0,j,j,264
2.0,1.0,0.5012309551239014,1.0,l,l,265
2.0,1.0,0.4574160575866699,1.0,j,j,266
2.0,1.0,0.4151270389556885,1.0,k,k,267
2.0,1.0,0.4143049716949463,1.0,l,l,268
2.0,0.0,0.5548789501190186,1.0,l,k,269
2.0,0.0,,1.0,,j,270
2.0,1.0,0.4793860912322998,1.0,k,k,271
2.0,1.0,0.4401118755340576,1.0,h,h,272
2.0,1.0,0.36597490310668945,1.0,k,k,273
2.0,1.0,0.5428550243377686,1.0,l,l,274
2.0,1.0,0.41754603385925293,1.0,h,h,275
2.0,1.0,0.4790670871734619,1.0,j,j,276
2.0,1.0,0.5147562026977539,1.0,h,h,277
2.0,0.0,,1.0,,l,278
2.0,0.0,0.3159170150756836,1.0,j,k,279
2.0,1.0,0.4769589900970459,1.0,l,l,280
2.0,1.0,0.45401811599731445,1.0,j,j,281
2.0,1.0,0.4920768737792969,1.0,h,h,282
2.0,1.0,0.40136289596557617,1.0,l,l,283
2.0,1.0,0.3539590835571289,1.0,j,j,284
2.0,1.0,0.37261199951171875,1.0,k,k,285
2.0,1.0,0.45902013778686523,1.0,l,l,286
2.0,1.0,0.5426430702209473,1.0,k,k,287
2.0,0.0,,1.0,,j,288
2.0,1.0,0.5596780776977539,1.0,h,h,289
2.0,0.0,0.46779298782348633,1.0,l,k,290
2.0,1.0,0.46425604820251465,1.0,h,h,291
2.0,0.0,0.4501829147338867,1.0,l,j,292
2.0,1.0,0.4205629825592041,1.0,k,k,293
2.0,1.0,0.4511380195617676,1.0,h,h,294
2.0,1.0,0.4601421356201172,1.0,k,k,295
2.0,1.0,0.4037790298461914,1.0,h,h,296
2.0,1.0,0.4963068962097168,1.0,l,l,297
2.0,0.0,0.5455079078674316,1.0,j,h,298
2.0,1.0,0.4096050262451172,1.0,k,k,299
2.0,1.0,0.49363112449645996,1.0,j,j,300
2.0,1.0,0.4581899642944336,1.0,l,l,301
2.0,0.0,0.4605259895324707,1.0,j,k,302
2.0,0.0,,1.0,,l,303
2.0,1.0,0.5502259731292725,1.0,h,h,304
2.0,1.0,0.4982779026031494,1.0,k,k,305
2.0,1.0,0.504641056060791,1.0,h,h,306
2.0,1.0,0.4311189651489258,1.0,l,l,307
2.0,1.0,0.42442893981933594,1.0,j,j,308
2.0,1.0,0.5090630054473877,1.0,h,h,309
2.0,1.0,0.3572659492492676,1.0,j,j,310
2.0,0.0,,1.0,,h,311
2.0,0.0,,1.0,,l,312
2.0,0.0,,1.0,,h,313
2.0,1.0,0.32602715492248535,1.0,k,k,314
2.0,1.0,0.3571178913116455,1.0,h,h,315
2.0,1.0,0.34978199005126953,1.0,k,k,316
2.0,1.0,0.3833489418029785,1.0,j,j,317
2.0,1.0,0.5081989765167236,1.0,h,h,318
2.0,1.0,0.49089908599853516,1.0,l,l,319
2.0,1.0,0.5514681339263916,1.0,j,j,320
2.0,1.0,0.45403194427490234,1.0,k,k,321
2.0,1.0,0.43746519088745117,1.0,h,h,322
2.0,1.0,0.5370631217956543,1.0,k,k,323
2.0,1.0,0.47737884521484375,1.0,j,j,324
2.0,1.0,0.4691150188446045,1.0,h,h,325
2.0,1.0,0.37052202224731445,1.0,j,j,326
2.0,0.0,,1.0,,k,327
2.0,1.0,0.49387621879577637,1.0,h,h,328
2.0,1.0,0.5234198570251465,1.0,k,k,329
2.0,1.0,0.47501397132873535,1.0,h,h,330
2.0,1.0,0.45645689964294434,1.0,l,l,331
2.0,1.0,0.43456506729125977,1.0,j,j,332
2.0,1.0,0.4849579334259033,1.0,h,h,333
2.0,0.0,0.48446106910705566,1.0,k,l,334
2.0,1.0,0.3491339683532715,1.0,k,k,335
2.0,1.0,0.49285292625427246,1.0,h,h,336
2.0,1.0,0.5523250102996826,1.0,k,k,337
2.0,1.0,0.476146936416626,1.0,h,h,338
2.0,1.0,0.44759297370910645,1.0,k,k,339
2.0,1.0,0.5045769214630127,1.0,h,h,340
2.0,1.0,0.5154910087585449,1.0,l,l,341
2.0,0.0,,1.0,,k,342
2.0,1.0,0.3285379409790039,1.0,l,l,343
2.0,1.0,0.3196730613708496,1.0,j,j,344
2.0,1.0,0.44679999351501465,1.0,l,l,345
2.0,1.0,0.48978614807128906,1.0,k,k,346
2.0,1.0,0.5215699672698975,1.0,j,j,347
2.0,1.0,0.45813989639282227,1.0,h,h,348
2.0,1.0,0.5009090900421143,1.0,l,l,349
2.0,1.0,0.46070384979248047,1.0,k,k,350
2.0,1.0,0.5294327735900879,1.0,l,l,351
2.0,1.0,0.5032801628112793,1.0,j,j,352
2.0,1.0,0.44922518730163574,1.0,l,l,353
2.0,1.0,0.4909329414367676,1.0,j,j,354
2.0,1.0,0.500262975692749,1.0,k,k,355
2.0,1.0,0.3781929016113281,1.0,h,h,356
2.0,1.0,0.47512292861938477,1.0,j,j,357
2.0,1.0,0.561398983001709,1.0,h,h,358
2.0,1.0,0.4415159225463867,1.0,k,k,359
2.0,0.0,0.4444301128387451,1.0,k,j,360
2.0,1.0,0.4778709411621094,1.0,k,k,361
2.0,1.0,0.5497479438781738,1.0,h,h,362
2.0,1.0,0.33209919929504395,1.0,k,k,363
2.0,1.0,0.5167419910430908,1.0,l,l,364
2.0,1.0,0.5042150020599365,1.0,j,j,365
2.0,0.0,0.43208909034729004,1.0,k,l,366
2.0,1.0,0.46213221549987793,1.0,j,j,367
2.0,1.0,0.3746349811553955,1.0,k,k,368
2.0,1.0,0.4468681812286377,1.0,j,j,369
2.0,1.0,0.3540620803833008,1.0,h,h,370
2.0,1.0,0.44391489028930664,1.0,l,l,371
2.0,1.0,0.4090609550476074,1.0,j,j,372
2.0,1.0,0.37187695503234863,1.0,h,h,373
2.0,1.0,0.49796319007873535,1.0,k,k,374
2.0,0.0,,1.0,,j,375
2.0,1.0,0.504817008972168,1.0,l,l,376
2.0,0.0,,1.0,,j,377
2.0,1.0,0.4649200439453125,1.0,l,l,378
2.0,1.0,0.5050280094146729,1.0,k,k,379
2.0,1.0,0.5418012142181396,1.0,j,j,380
2.0,1.0,0.4863779544830322,1.0,k,k,381
2.0,1.0,0.486706018447876,1.0,h,h,382
2.0,1.0,0.3512389659881592,1.0,k,k,383
2.0,1.0,0.46438002586364746,1.0,j,j,384
2.0,1.0,0.48494911193847656,1.0,l,l,385
2.0,0.0,0.45279598236083984,1.0,k,j,386
2.0,1.0,0.4757211208343506,1.0,h,h,387
2.0,1.0,0.32663798332214355,1.0,k,k,388
2.0,1.0,0.42840099334716797,1.0,j,j,389
2.0,1.0,0.46949100494384766,1.0,k,k,390
2.0,1.0,0.5467090606689453,1.0,j,j,391
2.0,1.0,0.4639430046081543,1.0,k,k,392
2.0,1.0,0.49789905548095703,1.0,l,l,393
2.0,0.0,0.4496879577636719,1.0,k,j,394
2.0,1.0,0.5165908336639404,1.0,h,h,395
2.0,1.0,0.49277710914611816,1.0,l,l,396
2.0,0.0,,1.0,,k,397
2.0,1.0,0.4451298713684082,1.0,j,j,398
2.0,1.0,0.4695448875427246,1.0,h,h,399
2.0,1.0,0.49136900901794434,1.0,j,j,400
2.0,1.0,0.49634408950805664,1.0,h,h,401
2.0,1.0,0.4642620086669922,1.0,j,j,402
2.0,1.0,0.3670518398284912,1.0,h,h,403
2.0,1.0,0.4439070224761963,1.0,j,j,404
2.0,1.0,0.523622989654541,1.0,h,h,405
2.0,1.0,0.44003796577453613,1.0,l,l,406
2.0,1.0,0.425159215927124,1.0,k,k,407
2.0,1.0,0.3762791156768799,1.0,l,l,408
2.0,1.0,0.35193586349487305,1.0,k,k,409
2.0,1.0,0.49084997177124023,1.0,j,j,410
2.0,1.0,0.47092390060424805,1.0,h,h,411
2.0,0.0,0.40208911895751953,1.0,k,l,412
2.0,1.0,0.46553993225097656,1.0,j,j,413
2.0,1.0,0.5170679092407227,1.0,h,h,414
2.0,1.0,0.4033031463623047,1.0,k,k,415
2.0,1.0,0.4974079132080078,1.0,h,h,416
2.0,1.0,0.4745151996612549,1.0,l,l,417
2.0,0.0,,1.0,,h,418
2.0,1.0,0.4561481475830078,1.0,j,j,419
2.0,1.0,0.37364697456359863,1.0,h,h,420
2.0,1.0,0.4253721237182617,1.0,k,k,421
2.0,1.0,0.4016709327697754,1.0,h,h,422
2.0,1.0,0.4752211570739746,1.0,j,j,423
2.0,0.0,0.3664820194244385,1.0,h,k,424
2.0,0.0,0.5237400531768799,1.0,k,j,425
2.0,1.0,0.3191959857940674,1.0,k,k,426
2.0,1.0,0.32080698013305664,1.0,j,j,427
2.0,1.0,0.3775980472564697,1.0,l,l,428
2.0,1.0,0.30896496772766113,1.0,h,h,429
2.0,0.0,0.2967381477355957,1.0,k,l,430
2.0,1.0,0.5252809524536133,1.0,h,h,431
2.0,1.0,0.4913489818572998,1.0,j,j,432
2.0,1.0,0.411592960357666,1.0,h,h,433
2.0,1.0,0.4139881134033203,1.0,l,l,434
2.0,1.0,0.44928503036499023,1.0,k,k,435
2.0,1.0,0.4207630157470703,1.0,j,j,436
2.0,1.0,0.43195199966430664,1.0,k,k,437
2.0,1.0,0.4570322036743164,1.0,h,h,438
2.0,1.0,0.4103829860687256,1.0,k,k,439
2.0,1.0,0.5134179592132568,1.0,j,j,440
2.0,1.0,0.44920802116394043,1.0,l,l,441
2.0,1.0,0.45173096656799316,1.0,h,h,442
2.0,1.0,0.4376230239868164,1.0,k,k,443
2.0,0.0,0.44234800338745117,1.0,k,l,444
2.0,1.0,0.5500459671020508,1.0,h,h,445
2.0,1.0,0.46056604385375977,1.0,l,l,446
2.0,1.0,0.4297189712524414,1.0,j,j,447
2.0,1.0,0.4893798828125,1.0,k,k,448
2.0,1.0,0.4907050132751465,1.0,j,j,449
2.0,1.0,0.3851931095123291,1.0,k,k,450
2.0,1.0,0.48038816452026367,1.0,j,j,451
2.0,1.0,0.4893629550933838,1.0,h,h,452
2.0,0.0,0.42209792137145996,1.0,k,j,453
2.0,1.0,0.44839906692504883,1.0,h,h,454
2.0,0.0,0.4718289375305176,1.0,k,l,455
2.0,1.0,0.4683969020843506,1.0,h,h,456
2.0,1.0,0.41961002349853516,1.0,k,k,457
2.0,1.0,0.3708629608154297,1.0,l,l,458
2.0,1.0,0.4022519588470459,1.0,h,h,459
2.0,1.0,0.35556602478027344,1.0,k,k,460
2.0,1.0,0.3537740707397461,1.0,h,h,461
2.0,1.0,0.3115508556365967,1.0,k,k,462
2.0,1.0,0.4336700439453125,1.0,l,l,463
2.0,1.0,0.2944798469543457,1.0,j,j,464
2.0,1.0,0.5137238502502441,1.0,h,h,465
2.0,1.0,0.5248498916625977,1.0,j,j,466
2.0,1.0,0.4289839267730713,1.0,l,l,467
2.0,1.0,0.47415590286254883,1.0,j,j,468
2.0,1.0,0.5220949649810791,1.0,l,l,469
2.0,1.0,0.538477897644043,1.0,h,h,470
2.0,1.0,0.4886610507965088,1.0,l,l,471
2.0,1.0,0.3631858825683594,1.0,k,k,472
2.0,1.0,0.3687739372253418,1.0,l,l,473
2.0,1.0,0.41753697395324707,1.0,j,j,474
2.0,1.0,0.45445895195007324,1.0,h,h,475
2.0,1.0,0.447052001953125,1.0,k,k,476
2.0,1.0,0.4191160202026367,1.0,h,h,477
2.0,0.0,,1.0,,j,478
2.0,1.0,0.49053215980529785,1.0,k,k,479
2.0,1.0,0.4357461929321289,1.0,l,l,480
2.0,1.0,0.4100639820098877,1.0,h,h,481
2.0,1.0,0.40293288230895996,1.0,k,k,482
2.0,1.0,0.4570159912109375,1.0,j,j,483
2.0,1.0,0.4393041133880615,1.0,h,h,484
2.0,1.0,0.40953707695007324,1.0,k,k,485
2.0,1.0,0.4674720764160156,1.0,j,j,486
2.0,1.0,0.5090241432189941,1.0,h,h,487
2.0,1.0,0.4616739749908447,1.0,l,l,488
2.0,1.0,0.4390408992767334,1.0,h,h,489
2.0,0.0,0.3752439022064209,1.0,k,j,490
2.0,1.0,0.5099818706512451,1.0,h,h,491
2.0,0.0,0.42395710945129395,1.0,k,l,492
2.0,1.0,0.42983198165893555,1.0,k,k,493
2.0,0.0,0.3967580795288086,1.0,k,l,494
2.0,1.0,0.5556049346923828,1.0,h,h,495
2.0,1.0,0.4507579803466797,1.0,j,j,496
2.0,1.0,0.4720771312713623,1.0,h,h,497
2.0,1.0,0.43369603157043457,1.0,j,j,498
2.0,1.0,0.43287110328674316,1.0,k,k,499
2.0,1.0,0.3426210880279541,1.0,l,l,500
2.0,1.0,0.47762012481689453,1.0,k,k,501
2.0,1.0,0.5192320346832275,1.0,h,h,502
2.0,1.0,0.4556410312652588,1.0,j,j,503
2.0,1.0,0.4136378765106201,1.0,h,h,504
2.0,1.0,0.4289698600769043,1.0,l,l,505
2.0,1.0,0.45661115646362305,1.0,h,h,506
2.0,1.0,0.5250868797302246,1.0,j,j,507
2.0,1.0,0.4318220615386963,1.0,h,h,508
2.0,1.0,0.45126891136169434,1.0,l,l,509
2.0,1.0,0.444810152053833,1.0,k,k,510
2.0,1.0,0.33900880813598633,1.0,l,l,511
2.0,1.0,0.3544299602508545,1.0,j,j,512
3.0,1.0,0.4177560806274414,2.0,k,k,513
3.0,1.0,0.35134077072143555,2.0,h,h,514
3.0,1.0,0.3240370750427246,2.0,k,k,515
3.0,1.0,0.23480582237243652,2.0,h,h,516
3.0,1.0,0.21492409706115723,2.0,j,j,517
3.0,1.0,0.1835169792175293,2.0,l,l,518
3.0,1.0,0.16121506690979004,2.0,k,k,519
3.0,1.0,0.16847610473632812,2.0,l,l,520
3.0,1.0,0.15010499954223633,2.0,j,j,521
3.0,1.0,0.1119239330291748,2.0,k,k,522
3.0,1.0,0.19391703605651855,2.0,h,h,523
3.0,0.0,0.2233278751373291,2.0,k,l,524
3.0,1.0,0.5568058490753174,2.0,j,j,525
3.0,1.0,0.23340582847595215,2.0,h,h,526
3.0,1.0,0.1731400489807129,2.0,k,k,527
3.0,1.0,0.17421698570251465,2.0,l,l,528
3.0,1.0,0.17520403861999512,2.0,k,k,529
3.0,1.0,0.14075899124145508,2.0,l,l,530
3.0,1.0,0.45526599884033203,2.0,h,h,531
3.0,1.0,0.40889620780944824,2.0,k,k,532
3.0,1.0,0.7176599502563477,2.0,l,l,533
3.0,1.0,0.4387540817260742,2.0,j,j,534
3.0,1.0,0.32401204109191895,2.0,h,h,535
3.0,1.0,0.19307899475097656,2.0,j,j,536
3.0,1.0,0.15746116638183594,2.0,l,l,537
3.0,1.0,0.1549232006072998,2.0,j,j,538
3.0,1.0,0.19805192947387695,2.0,k,k,539
3.0,1.0,0.16042518615722656,2.0,h,h,540
3.0,1.0,0.48386406898498535,2.0,j,j,541
3.0,0.0,0.6391210556030273,2.0,j,h,542
3.0,1.0,0.18839597702026367,2.0,j,j,543
3.0,1.0,0.5033371448516846,2.0,l,l,544
3.0,1.0,0.1330709457397461,2.0,k,k,545
3.0,1.0,0.14071106910705566,2.0,h,h,546
3.0,1.0,0.12941503524780273,2.0,k,k,547
3.0,1.0,0.1584911346435547,2.0,h,h,548
3.0,1.0,0.14797401428222656,2.0,j,j,549
3.0,1.0,0.09526801109313965,2.0,l,l,550
3.0,1.0,0.07045316696166992,2.0,k,k,551
3.0,1.0,0.16596198081970215,2.0,l,l,552
3.0,1.0,0.15137410163879395,2.0,j,j,553
3.0,1.0,0.18879199028015137,2.0,k,k,554
3.0,1.0,0.1488652229309082,2.0,h,h,555
3.0,1.0,0.32666492462158203,2.0,l,l,556
3.0,1.0,0.23812103271484375,2.0,j,j,557
3.0,1.0,0.5375020503997803,2.0,h,h,558
3.0,1.0,0.3321349620819092,2.0,k,k,559
3.0,1.0,0.17651605606079102,2.0,l,l,560
3.0,1.0,0.11272311210632324,2.0,k,k,561
3.0,1.0,0.10814595222473145,2.0,l,l,562
3.0,0.0,0.1427450180053711,2.0,j,h,563
3.0,1.0,0.4661071300506592,2.0,k,k,564
3.0,1.0,0.3441331386566162,2.0,l,l,565
3.0,1.0,0.41904401779174805,2.0,j,j,566
3.0,1.0,0.3250720500946045,2.0,h,h,567
3.0,1.0,0.1515519618988037,2.0,j,j,568
3.0,1.0,0.09858107566833496,2.0,l,l,569
3.0,1.0,0.10110902786254883,2.0,j,j,570
3.0,1.0,0.09835100173950195,2.0,k,k,571
3.0,1.0,0.1314389705657959,2.0,h,h,572
3.0,0.0,0.17566418647766113,2.0,l,j,573
3.0,0.0,0.42432498931884766,2.0,j,h,574
3.0,1.0,0.12642693519592285,2.0,j,j,575
3.0,1.0,0.1274878978729248,2.0,l,l,576
3.0,1.0,0.09339094161987305,2.0,k,k,577
3.0,1.0,0.047627925872802734,2.0,h,h,578
3.0,1.0,0.0981760025024414,2.0,k,k,579
3.0,1.0,0.08931303024291992,2.0,h,h,580
3.0,1.0,0.13356494903564453,2.0,j,j,581
3.0,1.0,0.07748794555664062,2.0,l,l,582
3.0,1.0,0.10817503929138184,2.0,k,k,583
3.0,1.0,0.025578975677490234,2.0,l,l,584
3.0,1.0,0.11149096488952637,2.0,j,j,585
3.0,1.0,0.04346799850463867,2.0,k,k,586
3.0,1.0,0.11796903610229492,2.0,h,h,587
3.0,1.0,0.4392731189727783,2.0,l,l,588
3.0,1.0,0.36128997802734375,2.0,j,j,589
3.0,1.0,0.5122740268707275,2.0,h,h,590
3.0,1.0,0.46890902519226074,2.0,k,k,591
3.0,1.0,0.09154510498046875,2.0,l,l,592
3.0,1.0,0.0956120491027832,2.0,k,k,593
3.0,1.0,0.07268309593200684,2.0,l,l,594
3.0,1.0,0.4111368656158447,2.0,h,h,595
3.0,1.0,0.5636248588562012,2.0,k,k,596
3.0,1.0,0.2136998176574707,2.0,l,l,597
3.0,1.0,0.3134729862213135,2.0,j,j,598
3.0,1.0,0.15369892120361328,2.0,h,h,599
3.0,1.0,0.16384220123291016,2.0,j,j,600
3.0,1.0,0.10816812515258789,2.0,l,l,601
3.0,1.0,0.10310792922973633,2.0,j,j,602
3.0,1.0,0.14115190505981445,2.0,k,k,603
3.0,1.0,0.15079307556152344,2.0,h,h,604
3.0,1.0,0.38922595977783203,2.0,j,j,605
3.0,1.0,0.1378328800201416,2.0,h,h,606
3.0,1.0,0.15737485885620117,2.0,j,j,607
3.0,1.0,0.10947585105895996,2.0,l,l,608
3.0,1.0,0.06226921081542969,2.0,k,k,609
3.0,1.0,0.10301613807678223,2.0,h,h,610
3.0,1.0,0.08712410926818848,2.0,k,k,611
3.0,1.0,0.08148479461669922,2.0,h,h,612
3.0,1.0,0.10242295265197754,2.0,j,j,613
3.0,1.0,0.07774710655212402,2.0,l,l,614
3.0,1.0,0.07314419746398926,2.0,k,k,615
3.0,1.0,0.11464905738830566,2.0,l,l,616
3.0,1.0,0.10028696060180664,2.0,j,j,617
3.0,1.0,0.09274888038635254,2.0,k,k,618
3.0,1.0,0.12713980674743652,2.0,h,h,619
3.0,1.0,0.3484621047973633,2.0,l,l,620
3.0,1.0,0.40154504776000977,2.0,j,j,621
3.0,1.0,0.46489405632019043,2.0,h,h,622
3.0,1.0,0.40616822242736816,2.0,k,k,623
3.0,1.0,0.11842107772827148,2.0,l,l,624
3.0,1.0,0.11468911170959473,2.0,k,k,625
3.0,1.0,0.09541201591491699,2.0,l,l,626
3.0,1.0,0.12271809577941895,2.0,h,h,627
3.0,1.0,0.12535905838012695,2.0,k,k,628
3.0,1.0,0.09601616859436035,2.0,l,l,629
3.0,1.0,0.11816287040710449,2.0,j,j,630
3.0,1.0,0.1411149501800537,2.0,h,h,631
3.0,1.0,0.19575881958007812,2.0,j,j,632
3.0,1.0,0.12022280693054199,2.0,l,l,633
3.0,1.0,0.17628216743469238,2.0,j,j,634
3.0,1.0,0.07686901092529297,2.0,k,k,635
3.0,1.0,0.18798208236694336,2.0,h,h,636
3.0,1.0,0.17235088348388672,2.0,j,j,637
3.0,1.0,0.1277468204498291,2.0,h,h,638
3.0,1.0,0.11027002334594727,2.0,j,j,639
3.0,1.0,0.08102607727050781,2.0,l,l,640
3.0,1.0,0.055346012115478516,2.0,k,k,641
3.0,1.0,0.10763788223266602,2.0,h,h,642
3.0,1.0,0.08033609390258789,2.0,k,k,643
3.0,1.0,0.07268404960632324,2.0,h,h,644
3.0,1.0,0.08675217628479004,2.0,j,j,645
3.0,1.0,0.10623002052307129,2.0,l,l,646
3.0,1.0,0.043459177017211914,2.0,k,k,647
3.0,1.0,0.09784102439880371,2.0,l,l,648
3.0,1.0,0.1022799015045166,2.0,j,j,649
3.0,1.0,0.047183990478515625,2.0,k,k,650
3.0,1.0,0.11814999580383301,2.0,h,h,651
3.0,1.0,0.44304895401000977,2.0,l,l,652
3.0,1.0,0.4982609748840332,2.0,j,j,653
3.0,1.0,0.5018310546875,2.0,h,h,654
3.0,1.0,0.3643460273742676,2.0,k,k,655
3.0,1.0,0.06041383743286133,2.0,l,l,656
3.0,1.0,0.05237603187561035,2.0,k,k,657
3.0,1.0,0.039884090423583984,2.0,l,l,658
3.0,1.0,0.14960384368896484,2.0,h,h,659
3.0,1.0,0.12169885635375977,2.0,k,k,660
3.0,1.0,0.032295942306518555,2.0,l,l,661
3.0,1.0,0.056611061096191406,2.0,j,j,662
3.0,1.0,0.03347206115722656,2.0,h,h,663
3.0,1.0,0.04758000373840332,2.0,j,j,664
3.0,1.0,0.010568857192993164,2.0,l,l,665
3.0,1.0,0.07814407348632812,2.0,j,j,666
3.0,1.0,0.057930946350097656,2.0,k,k,667
3.0,1.0,0.03092789649963379,2.0,h,h,668
3.0,1.0,0.5160789489746094,2.0,j,j,669
3.0,1.0,0.13203215599060059,2.0,h,h,670
3.0,1.0,0.09101390838623047,2.0,j,j,671
3.0,1.0,0.07492995262145996,2.0,l,l,672
3.0,1.0,0.08100700378417969,2.0,k,k,673
3.0,1.0,0.03523588180541992,2.0,h,h,674
3.0,1.0,0.06380891799926758,2.0,k,k,675
3.0,1.0,0.022832870483398438,2.0,h,h,676
3.0,1.0,0.06758594512939453,2.0,j,j,677
3.0,0.0,0.04259991645812988,2.0,k,l,678
3.0,1.0,0.5665819644927979,2.0,k,k,679
3.0,1.0,0.3926999568939209,2.0,l,l,680
3.0,1.0,0.38303709030151367,2.0,j,j,681
3.0,1.0,0.3119010925292969,2.0,k,k,682
3.0,1.0,0.05768990516662598,2.0,h,h,683
3.0,0.0,0.3829371929168701,2.0,k,l,684
3.0,1.0,0.44819092750549316,2.0,j,j,685
3.0,1.0,0.3601977825164795,2.0,h,h,686
3.0,1.0,0.3583509922027588,2.0,k,k,687
3.0,1.0,0.04135608673095703,2.0,l,l,688
3.0,1.0,0.09538793563842773,2.0,k,k,689
3.0,1.0,0.09243178367614746,2.0,l,l,690
3.0,1.0,0.09333109855651855,2.0,h,h,691
3.0,1.0,0.087738037109375,2.0,k,k,692
3.0,1.0,0.09180784225463867,2.0,l,l,693
3.0,1.0,0.10108590126037598,2.0,j,j,694
3.0,1.0,0.08369207382202148,2.0,h,h,695
3.0,1.0,0.19836115837097168,2.0,j,j,696
3.0,1.0,0.5111210346221924,2.0,l,l,697
3.0,1.0,0.09331417083740234,2.0,j,j,698
3.0,1.0,0.3583109378814697,2.0,k,k,699
3.0,1.0,0.1362919807434082,2.0,h,h,700
3.0,1.0,0.07515192031860352,2.0,j,j,701
3.0,1.0,0.0509028434753418,2.0,h,h,702
3.0,1.0,0.008600950241088867,2.0,j,j,703
3.0,1.0,0.045835018157958984,2.0,l,l,704
3.0,1.0,0.5080201625823975,2.0,k,k,705
3.0,1.0,0.08231091499328613,2.0,h,h,706
3.0,0.0,0.3125441074371338,2.0,h,k,707
3.0,1.0,0.31096792221069336,2.0,h,h,708
3.0,1.0,0.10112380981445312,2.0,j,j,709
3.0,1.0,0.06929802894592285,2.0,l,l,710
3.0,1.0,0.12485003471374512,2.0,k,k,711
3.0,1.0,0.0557401180267334,2.0,l,l,712
3.0,1.0,0.13870906829833984,2.0,j,j,713
3.0,1.0,0.07248711585998535,2.0,k,k,714
3.0,1.0,0.10822701454162598,2.0,h,h,715
3.0,1.0,0.396129846572876,2.0,l,l,716
3.0,1.0,0.5040380954742432,2.0,j,j,717
3.0,1.0,0.32938504219055176,2.0,h,h,718
3.0,1.0,0.20296812057495117,2.0,k,k,719
3.0,1.0,0.027436017990112305,2.0,l,l,720
3.0,1.0,0.022711992263793945,2.0,k,k,721
3.0,1.0,0.05420708656311035,2.0,l,l,722
3.0,1.0,0.2367258071899414,2.0,h,h,723
3.0,1.0,0.4768710136413574,2.0,k,k,724
3.0,1.0,0.182265043258667,2.0,l,l,725
3.0,1.0,0.08235383033752441,2.0,j,j,726
3.0,1.0,0.08617019653320312,2.0,h,h,727
3.0,1.0,0.3358139991760254,2.0,j,j,728
3.0,1.0,0.0694270133972168,2.0,l,l,729
3.0,1.0,0.08609890937805176,2.0,j,j,730
3.0,1.0,0.08966803550720215,2.0,k,k,731
3.0,1.0,0.4047980308532715,2.0,h,h,732
3.0,1.0,0.05199885368347168,2.0,j,j,733
3.0,1.0,0.5404829978942871,2.0,h,h,734
3.0,1.0,0.0950019359588623,2.0,j,j,735
3.0,1.0,0.08771109580993652,2.0,l,l,736
3.0,1.0,0.05296778678894043,2.0,k,k,737
3.0,1.0,0.08515501022338867,2.0,h,h,738
3.0,1.0,0.05443215370178223,2.0,k,k,739
3.0,1.0,0.06577897071838379,2.0,h,h,740
3.0,1.0,0.15303707122802734,2.0,j,j,741
3.0,1.0,0.07494807243347168,2.0,l,l,742
3.0,0.0,0.1959989070892334,2.0,l,k,743
3.0,1.0,0.2793560028076172,2.0,l,l,744
3.0,1.0,0.16246914863586426,2.0,j,j,745
3.0,1.0,0.06564903259277344,2.0,k,k,746
3.0,1.0,0.09211301803588867,2.0,h,h,747
3.0,1.0,0.5517840385437012,2.0,l,l,748
3.0,1.0,0.23523998260498047,2.0,j,j,749
3.0,1.0,0.06362605094909668,2.0,h,h,750
3.0,0.0,0.05288290977478027,2.0,j,k,751
3.0,1.0,0.5840718746185303,2.0,l,l,752
3.0,1.0,0.15404796600341797,2.0,k,k,753
3.0,1.0,0.04140901565551758,2.0,l,l,754
3.0,1.0,0.4585871696472168,2.0,h,h,755
3.0,1.0,0.5749051570892334,2.0,k,k,756
3.0,1.0,0.5416030883789062,2.0,l,l,757
3.0,1.0,0.4717838764190674,2.0,j,j,758
3.0,1.0,0.4528989791870117,2.0,h,h,759
3.0,1.0,0.3212730884552002,2.0,j,j,760
3.0,1.0,0.47812700271606445,2.0,l,l,761
3.0,0.0,0.17801594734191895,2.0,k,j,762
3.0,1.0,0.6390781402587891,2.0,k,k,763
3.0,0.0,0.5143508911132812,2.0,j,h,764
3.0,1.0,0.21595382690429688,2.0,j,j,765
3.0,1.0,0.11168503761291504,2.0,h,h,766
3.0,1.0,0.08227896690368652,2.0,j,j,767
3.0,1.0,0.07812190055847168,2.0,l,l,768
4.0,0.0,,2.0,,j,769
4.0,0.0,,2.0,,l,770
4.0,1.0,0.344235897064209,2.0,k,k,771
4.0,0.0,,2.0,,l,772
4.0,0.0,,2.0,,j,773
4.0,1.0,0.3567171096801758,2.0,k,k,774
4.0,1.0,0.35027503967285156,2.0,h,h,775
4.0,0.0,,2.0,,l,776
4.0,0.0,,2.0,,j,777
4.0,0.0,,2.0,,h,778
4.0,0.0,0.27756309509277344,2.0,j,k,779
4.0,1.0,0.3425099849700928,2.0,l,l,780
4.0,1.0,0.22112607955932617,2.0,k,k,781
4.0,1.0,0.3282930850982666,2.0,l,l,782
4.0,0.0,,2.0,,h,783
4.0,0.0,,2.0,,k,784
4.0,1.0,0.2485949993133545,2.0,l,l,785
4.0,1.0,0.11580300331115723,2.0,j,j,786
4.0,1.0,0.05700111389160156,2.0,h,h,787
4.0,1.0,0.134721040725708,2.0,j,j,788
4.0,1.0,0.1186070442199707,2.0,l,l,789
4.0,1.0,0.12994599342346191,2.0,j,j,790
4.0,1.0,0.11754488945007324,2.0,k,k,791
4.0,1.0,0.08615279197692871,2.0,h,h,792
4.0,1.0,0.05245184898376465,2.0,j,j,793
4.0,1.0,0.11981511116027832,2.0,h,h,794
4.0,1.0,0.03849601745605469,2.0,j,j,795
4.0,1.0,0.0625619888305664,2.0,l,l,796
4.0,1.0,0.09266400337219238,2.0,k,k,797
4.0,1.0,0.07217693328857422,2.0,h,h,798
4.0,1.0,0.07489991188049316,2.0,k,k,799
4.0,1.0,0.03584694862365723,2.0,h,h,800
4.0,1.0,0.09168386459350586,2.0,j,j,801
4.0,1.0,0.013935089111328125,2.0,l,l,802
4.0,1.0,0.11008906364440918,2.0,k,k,803
4.0,1.0,0.03732585906982422,2.0,l,l,804
4.0,1.0,0.35207509994506836,2.0,j,j,805
4.0,1.0,0.31992006301879883,2.0,k,k,806
4.0,1.0,0.10577392578125,2.0,h,h,807
4.0,0.0,,2.0,,l,808
4.0,0.0,,2.0,,j,809
4.0,0.0,,2.0,,h,810
4.0,0.0,,2.0,,k,811
4.0,1.0,0.15509796142578125,2.0,l,l,812
4.0,1.0,0.08015584945678711,2.0,k,k,813
4.0,1.0,0.06451010704040527,2.0,l,l,814
4.0,1.0,0.13080906867980957,2.0,h,h,815
4.0,0.0,,2.0,,k,816
4.0,1.0,0.16944098472595215,2.0,l,l,817
4.0,1.0,0.09403586387634277,2.0,j,j,818
4.0,1.0,0.07748985290527344,2.0,h,h,819
4.0,1.0,0.14800310134887695,2.0,j,j,820
4.0,1.0,0.08676695823669434,2.0,l,l,821
4.0,1.0,0.15602898597717285,2.0,j,j,822
4.0,1.0,0.06516289710998535,2.0,k,k,823
4.0,1.0,0.1038370132446289,2.0,h,h,824
4.0,1.0,0.05125904083251953,2.0,j,j,825
4.0,1.0,0.07829809188842773,2.0,h,h,826
4.0,1.0,0.09285092353820801,2.0,j,j,827
4.0,1.0,0.10211896896362305,2.0,l,l,828
4.0,1.0,0.10657310485839844,2.0,k,k,829
4.0,0.0,,2.0,,h,830
4.0,0.0,,2.0,,k,831
4.0,0.0,0.2898130416870117,2.0,l,h,832
4.0,0.0,,2.0,,j,833
4.0,0.0,,2.0,,l,834
4.0,1.0,0.3054630756378174,2.0,k,k,835
4.0,1.0,0.3217461109161377,2.0,l,l,836
4.0,0.0,0.3485391139984131,2.0,h,j,837
4.0,0.0,,2.0,,k,838
4.0,0.0,,2.0,,h,839
4.0,0.0,,2.0,,l,840
4.0,0.0,,2.0,,j,841
4.0,0.0,,2.0,,h,842
4.0,0.0,0.33110499382019043,2.0,j,k,843
4.0,1.0,0.20044398307800293,2.0,l,l,844
4.0,0.0,,2.0,,k,845
4.0,0.0,0.3199801445007324,2.0,k,l,846
4.0,1.0,0.11318516731262207,2.0,h,h,847
4.0,0.0,,2.0,,k,848
4.0,1.0,0.14027118682861328,2.0,l,l,849
4.0,1.0,0.08974504470825195,2.0,j,j,850
4.0,1.0,0.11852407455444336,2.0,h,h,851
4.0,1.0,0.20516705513000488,2.0,j,j,852
4.0,1.0,0.13701987266540527,2.0,l,l,853
4.0,1.0,0.33201098442077637,2.0,j,j,854
4.0,1.0,0.3062150478363037,2.0,k,k,855
4.0,0.0,,2.0,,h,856
4.0,0.0,,2.0,,j,857
4.0,0.0,,2.0,,h,858
4.0,1.0,0.26575589179992676,2.0,j,j,859
4.0,1.0,0.061460018157958984,2.0,l,l,860
4.0,1.0,0.14197802543640137,2.0,k,k,861
4.0,1.0,0.08265185356140137,2.0,h,h,862
4.0,1.0,0.06762504577636719,2.0,k,k,863
4.0,1.0,0.06538891792297363,2.0,h,h,864
4.0,1.0,0.1095888614654541,2.0,j,j,865
4.0,1.0,0.10702109336853027,2.0,l,l,866
4.0,1.0,0.11904501914978027,2.0,k,k,867
4.0,1.0,0.055212974548339844,2.0,l,l,868
4.0,1.0,0.0976259708404541,2.0,j,j,869
4.0,1.0,0.0901942253112793,2.0,k,k,870
4.0,1.0,0.08449101448059082,2.0,h,h,871
4.0,0.0,,2.0,,l,872
4.0,1.0,0.24068498611450195,2.0,j,j,873
4.0,0.0,0.24501609802246094,2.0,k,h,874
4.0,0.0,,2.0,,k,875
4.0,1.0,0.11429500579833984,2.0,l,l,876
4.0,1.0,0.06969690322875977,2.0,k,k,877
4.0,1.0,0.12051105499267578,2.0,l,l,878
4.0,0.0,,2.0,,h,879
4.0,1.0,0.16542887687683105,2.0,k,k,880
4.0,1.0,0.05908608436584473,2.0,l,l,881
4.0,1.0,0.08387517929077148,2.0,j,j,882
4.0,1.0,0.0355679988861084,2.0,h,h,883
4.0,1.0,0.11992621421813965,2.0,j,j,884
4.0,1.0,0.030549049377441406,2.0,l,l,885
4.0,1.0,0.11025309562683105,2.0,j,j,886
4.0,1.0,0.06715106964111328,2.0,k,k,887
4.0,0.0,0.06305384635925293,2.0,j,h,888
4.0,1.0,0.3070371150970459,2.0,j,j,889
4.0,1.0,0.2878701686859131,2.0,h,h,890
4.0,1.0,0.0921790599822998,2.0,j,j,891
4.0,1.0,0.056066036224365234,2.0,l,l,892
4.0,1.0,0.09331512451171875,2.0,k,k,893
4.0,1.0,0.08725285530090332,2.0,h,h,894
4.0,1.0,0.21188902854919434,2.0,k,k,895
4.0,1.0,0.13193893432617188,2.0,h,h,896
4.0,1.0,0.08376717567443848,2.0,j,j,897
4.0,1.0,0.017462968826293945,2.0,l,l,898
4.0,1.0,0.0885610580444336,2.0,k,k,899
4.0,1.0,0.03265213966369629,2.0,l,l,900
4.0,1.0,0.07154703140258789,2.0,j,j,901
4.0,1.0,0.05202794075012207,2.0,k,k,902
4.0,1.0,0.04959988594055176,2.0,h,h,903
4.0,0.0,0.22263693809509277,2.0,j,l,904
4.0,0.0,,2.0,,j,905
4.0,0.0,,2.0,,h,906
4.0,0.0,,2.0,,k,907
4.0,1.0,0.032900094985961914,2.0,l,l,908
4.0,0.0,,2.0,,k,909
4.0,0.0,,2.0,,l,910
4.0,1.0,0.055171966552734375,2.0,h,h,911
4.0,1.0,0.33636999130249023,2.0,k,k,912
4.0,1.0,0.09782791137695312,2.0,l,l,913
4.0,1.0,0.21572494506835938,2.0,j,j,914
4.0,1.0,0.11513280868530273,2.0,h,h,915
4.0,1.0,0.11746478080749512,2.0,j,j,916
4.0,1.0,0.08468103408813477,2.0,l,l,917
4.0,1.0,0.08696699142456055,2.0,j,j,918
4.0,1.0,0.08073592185974121,2.0,k,k,919
4.0,0.0,0.1188960075378418,2.0,j,h,920
4.0,1.0,0.28400206565856934,2.0,j,j,921
4.0,0.0,,2.0,,h,922
4.0,1.0,0.3256490230560303,2.0,j,j,923
4.0,1.0,0.29995012283325195,2.0,l,l,924
4.0,1.0,0.16985201835632324,2.0,k,k,925
4.0,1.0,0.04824018478393555,2.0,h,h,926
4.0,1.0,0.09359598159790039,2.0,k,k,927
4.0,1.0,0.061473846435546875,2.0,h,h,928
4.0,1.0,0.10726404190063477,2.0,j,j,929
4.0,1.0,0.07342910766601562,2.0,l,l,930
4.0,1.0,0.022176027297973633,2.0,k,k,931
4.0,1.0,0.2422029972076416,2.0,l,l,932
4.0,0.0,0.17788195610046387,2.0,h,j,933
4.0,1.0,0.2269761562347412,2.0,k,k,934
4.0,1.0,0.05920600891113281,2.0,h,h,935
4.0,0.0,0.32772183418273926,2.0,k,l,936
4.0,1.0,0.2188279628753662,2.0,j,j,937
4.0,1.0,0.07936787605285645,2.0,h,h,938
4.0,1.0,0.3541839122772217,2.0,k,k,939
4.0,1.0,0.06733393669128418,2.0,l,l,940
4.0,1.0,0.051674842834472656,2.0,k,k,941
4.0,1.0,0.09076189994812012,2.0,l,l,942
4.0,0.0,,2.0,,h,943
4.0,1.0,0.03844189643859863,2.0,k,k,944
4.0,1.0,0.05539107322692871,2.0,l,l,945
4.0,1.0,0.0621190071105957,2.0,j,j,946
4.0,1.0,0.06723308563232422,2.0,h,h,947
4.0,0.0,,2.0,,j,948
4.0,0.0,,2.0,,l,949
4.0,0.0,,2.0,,j,950
4.0,1.0,0.2785789966583252,2.0,k,k,951
4.0,1.0,0.3304100036621094,2.0,h,h,952
4.0,1.0,0.08206820487976074,2.0,j,j,953
4.0,1.0,0.05165290832519531,2.0,h,h,954
4.0,1.0,0.11787891387939453,2.0,j,j,955
4.0,1.0,0.08018803596496582,2.0,l,l,956
4.0,1.0,0.05901789665222168,2.0,k,k,957
4.0,1.0,0.054986000061035156,2.0,h,h,958
4.0,1.0,0.04025912284851074,2.0,k,k,959
4.0,1.0,0.05326390266418457,2.0,h,h,960
4.0,1.0,0.0925898551940918,2.0,j,j,961
4.0,1.0,0.08795404434204102,2.0,l,l,962
4.0,1.0,0.053938865661621094,2.0,k,k,963
4.0,1.0,0.02316904067993164,2.0,l,l,964
4.0,1.0,0.10038399696350098,2.0,j,j,965
4.0,1.0,0.014400005340576172,2.0,k,k,966
4.0,1.0,0.11056399345397949,2.0,h,h,967
4.0,1.0,0.31075191497802734,2.0,l,l,968
4.0,1.0,0.33193087577819824,2.0,j,j,969
4.0,0.0,0.34321022033691406,2.0,k,h,970
4.0,0.0,,2.0,,k,971
4.0,0.0,,2.0,,l,972
4.0,1.0,0.09005093574523926,2.0,k,k,973
4.0,1.0,0.040904998779296875,2.0,l,l,974
4.0,1.0,0.30594801902770996,2.0,h,h,975
4.0,0.0,,2.0,,k,976
4.0,1.0,0.15923094749450684,2.0,l,l,977
4.0,1.0,0.11102986335754395,2.0,j,j,978
4.0,1.0,0.08870100975036621,2.0,h,h,979
4.0,1.0,0.15716195106506348,2.0,j,j,980
4.0,1.0,0.07496404647827148,2.0,l,l,981
4.0,1.0,0.09463810920715332,2.0,j,j,982
4.0,1.0,0.038186073303222656,2.0,k,k,983
4.0,1.0,0.08322501182556152,2.0,h,h,984
4.0,1.0,0.11195206642150879,2.0,j,j,985
4.0,0.0,,2.0,,h,986
4.0,1.0,0.15493392944335938,2.0,j,j,987
4.0,1.0,0.060400962829589844,2.0,l,l,988
4.0,1.0,0.12153315544128418,2.0,k,k,989
4.0,1.0,0.06627917289733887,2.0,h,h,990
4.0,1.0,0.07652592658996582,2.0,k,k,991
4.0,1.0,0.08057212829589844,2.0,h,h,992
4.0,1.0,0.08626985549926758,2.0,j,j,993
4.0,1.0,0.030375003814697266,2.0,l,l,994
4.0,1.0,0.08349919319152832,2.0,k,k,995
4.0,1.0,0.059523820877075195,2.0,l,l,996
4.0,1.0,0.3350698947906494,2.0,j,j,997
4.0,1.0,0.12993216514587402,2.0,k,k,998
4.0,1.0,0.06480693817138672,2.0,h,h,999
4.0,1.0,0.3264949321746826,2.0,l,l,1000
4.0,1.0,0.3193819522857666,2.0,j,j,1001
4.0,0.0,,2.0,,h,1002
4.0,1.0,0.3259730339050293,2.0,k,k,1003
4.0,1.0,0.12670111656188965,2.0,l,l,1004
4.0,1.0,0.09045004844665527,2.0,k,k,1005
4.0,1.0,0.10154509544372559,2.0,l,l,1006
4.0,1.0,0.22463321685791016,2.0,h,h,1007
4.0,1.0,0.0792090892791748,2.0,k,k,1008
4.0,1.0,0.05335402488708496,2.0,l,l,1009
4.0,1.0,0.09666705131530762,2.0,j,j,1010
4.0,1.0,0.08422613143920898,2.0,h,h,1011
4.0,1.0,0.12785792350769043,2.0,j,j,1012
4.0,1.0,0.07765698432922363,2.0,l,l,1013
4.0,1.0,0.10766887664794922,2.0,j,j,1014
4.0,1.0,0.1257481575012207,2.0,k,k,1015
4.0,1.0,0.08531999588012695,2.0,h,h,1016
4.0,1.0,0.09606099128723145,2.0,j,j,1017
4.0,1.0,0.09076905250549316,2.0,h,h,1018
4.0,1.0,0.11501097679138184,2.0,j,j,1019
4.0,1.0,0.03360915184020996,2.0,l,l,1020
4.0,1.0,0.21766304969787598,2.0,k,k,1021
4.0,1.0,0.07403683662414551,2.0,h,h,1022
4.0,1.0,0.08087515830993652,2.0,k,k,1023
4.0,1.0,0.05432391166687012,2.0,h,h,1024
5.0,0.0,,2.0,,l,1025
5.0,0.0,,2.0,,k,1026
5.0,1.0,0.17188620567321777,2.0,l,l,1027
5.0,0.0,,2.0,,h,1028
5.0,0.0,,2.0,,k,1029
5.0,1.0,0.21419906616210938,2.0,l,l,1030
5.0,1.0,0.08054399490356445,2.0,j,j,1031
5.0,1.0,0.07595086097717285,2.0,h,h,1032
5.0,1.0,0.09890985488891602,2.0,j,j,1033
5.0,1.0,0.08315491676330566,2.0,l,l,1034
5.0,1.0,0.03859305381774902,2.0,j,j,1035
5.0,1.0,0.06950592994689941,2.0,k,k,1036
5.0,1.0,0.006921052932739258,2.0,h,h,1037
5.0,1.0,0.13331818580627441,2.0,j,j,1038
5.0,1.0,0.08887100219726562,2.0,h,h,1039
5.0,1.0,0.035141944885253906,2.0,j,j,1040
5.0,1.0,0.055979013442993164,2.0,l,l,1041
5.0,1.0,0.030087947845458984,2.0,k,k,1042
5.0,1.0,0.09770703315734863,2.0,h,h,1043
5.0,1.0,0.008399009704589844,2.0,k,k,1044
5.0,1.0,0.05250096321105957,2.0,h,h,1045
5.0,1.0,0.03676891326904297,2.0,j,j,1046
5.0,1.0,0.08892297744750977,2.0,l,l,1047
5.0,1.0,0.04974102973937988,2.0,k,k,1048
5.0,1.0,0.033792972564697266,2.0,l,l,1049
5.0,1.0,0.031230926513671875,2.0,j,j,1050
5.0,1.0,0.007464885711669922,2.0,k,k,1051
5.0,1.0,0.07168412208557129,2.0,h,h,1052
5.0,0.0,0.0739290714263916,2.0,k,l,1053
5.0,1.0,0.28513097763061523,2.0,j,j,1054
5.0,1.0,0.08168506622314453,2.0,h,h,1055
5.0,0.0,,2.0,,k,1056
5.0,1.0,0.07418704032897949,2.0,l,l,1057
5.0,1.0,0.038439035415649414,2.0,k,k,1058
5.0,1.0,0.06915807723999023,2.0,l,l,1059
5.0,1.0,0.11800885200500488,2.0,h,h,1060
5.0,0.0,0.1477348804473877,2.0,j,k,1061
5.0,1.0,0.24713993072509766,2.0,l,l,1062
5.0,1.0,0.09363007545471191,2.0,j,j,1063
5.0,1.0,0.058959007263183594,2.0,h,h,1064
5.0,1.0,0.06846499443054199,2.0,j,j,1065
5.0,1.0,0.035980224609375,2.0,l,l,1066
5.0,1.0,0.030170202255249023,2.0,j,j,1067
5.0,1.0,0.04561805725097656,2.0,k,k,1068
5.0,1.0,0.06515693664550781,2.0,h,h,1069
5.0,0.0,,2.0,,j,1070
5.0,0.0,,2.0,,h,1071
5.0,1.0,0.2707400321960449,2.0,j,j,1072
5.0,1.0,0.26877903938293457,2.0,l,l,1073
5.0,1.0,0.07193708419799805,2.0,k,k,1074
5.0,1.0,0.014101982116699219,2.0,h,h,1075
5.0,1.0,0.0889289379119873,2.0,k,k,1076
5.0,1.0,0.08576011657714844,2.0,h,h,1077
5.0,1.0,0.062040090560913086,2.0,j,j,1078
5.0,1.0,0.05618000030517578,2.0,l,l,1079
5.0,1.0,0.04692506790161133,2.0,k,k,1080
5.0,1.0,0.0355989933013916,2.0,l,l,1081
5.0,1.0,0.158843994140625,2.0,j,j,1082
5.0,1.0,0.072998046875,2.0,k,k,1083
5.0,1.0,0.07728385925292969,2.0,h,h,1084
5.0,1.0,0.03481006622314453,2.0,l,l,1085
5.0,0.0,,2.0,,j,1086
5.0,0.0,,2.0,,h,1087
5.0,0.0,,2.0,,k,1088
5.0,1.0,0.13720202445983887,2.0,l,l,1089
5.0,1.0,0.05488991737365723,2.0,k,k,1090
5.0,1.0,0.0723409652709961,2.0,l,l,1091
5.0,1.0,0.05992293357849121,2.0,h,h,1092
5.0,1.0,0.07863497734069824,2.0,k,k,1093
5.0,1.0,0.024875164031982422,2.0,l,l,1094
5.0,1.0,0.053752899169921875,2.0,j,j,1095
5.0,1.0,0.027714967727661133,2.0,h,h,1096
5.0,1.0,0.08749198913574219,2.0,j,j,1097
5.0,1.0,0.0749969482421875,2.0,l,l,1098
5.0,1.0,0.07227492332458496,2.0,j,j,1099
5.0,1.0,0.019961118698120117,2.0,k,k,1100
5.0,1.0,0.0574641227722168,2.0,h,h,1101
5.0,1.0,0.07642102241516113,2.0,j,j,1102
5.0,1.0,0.04391789436340332,2.0,h,h,1103
5.0,1.0,0.06688904762268066,2.0,j,j,1104
5.0,1.0,0.007443904876708984,2.0,l,l,1105
5.0,1.0,0.06203508377075195,2.0,k,k,1106
5.0,1.0,0.030630111694335938,2.0,h,h,1107
5.0,1.0,0.02663707733154297,2.0,k,k,1108
5.0,1.0,0.028792142868041992,2.0,h,h,1109
5.0,1.0,0.07190108299255371,2.0,j,j,1110
5.0,1.0,0.017062902450561523,2.0,l,l,1111
5.0,1.0,0.04661893844604492,2.0,k,k,1112
5.0,1.0,0.015306949615478516,2.0,l,l,1113
5.0,1.0,0.04972195625305176,2.0,j,j,1114
5.0,1.0,0.10056090354919434,2.0,k,k,1115
5.0,0.0,0.029647111892700195,2.0,l,h,1116
5.0,0.0,,2.0,,l,1117
5.0,0.0,,2.0,,j,1118
5.0,1.0,0.21482181549072266,2.0,h,h,1119
5.0,1.0,0.06551694869995117,2.0,k,k,1120
5.0,0.0,,2.0,,l,1121
5.0,1.0,0.11463499069213867,2.0,k,k,1122
5.0,1.0,0.008574962615966797,2.0,l,l,1123
5.0,1.0,0.12756705284118652,2.0,h,h,1124
5.0,0.0,,2.0,,k,1125
5.0,1.0,0.07568097114562988,2.0,l,l,1126
5.0,1.0,0.049983978271484375,2.0,j,j,1127
5.0,1.0,0.03508305549621582,2.0,h,h,1128
5.0,1.0,0.06258392333984375,2.0,j,j,1129
5.0,1.0,0.06697583198547363,2.0,l,l,1130
5.0,1.0,0.12686896324157715,2.0,j,j,1131
5.0,1.0,0.11229801177978516,2.0,k,k,1132
5.0,1.0,0.06215786933898926,2.0,h,h,1133
5.0,1.0,0.029479026794433594,2.0,j,j,1134
5.0,1.0,0.06709790229797363,2.0,h,h,1135
5.0,1.0,0.09116291999816895,2.0,j,j,1136
5.0,1.0,0.03862118721008301,2.0,l,l,1137
5.0,1.0,0.05637311935424805,2.0,k,k,1138
5.0,1.0,0.04163694381713867,2.0,h,h,1139
5.0,1.0,0.049089908599853516,2.0,k,k,1140
5.0,1.0,0.045393943786621094,2.0,h,h,1141
5.0,1.0,0.057394981384277344,2.0,j,j,1142
5.0,1.0,0.013499021530151367,2.0,l,l,1143
5.0,1.0,0.047731876373291016,2.0,k,k,1144
5.0,1.0,0.10848093032836914,2.0,l,l,1145
5.0,1.0,0.2096080780029297,2.0,j,j,1146
5.0,1.0,0.020498991012573242,2.0,k,k,1147
5.0,1.0,0.05907797813415527,2.0,h,h,1148
5.0,1.0,0.05314898490905762,2.0,l,l,1149
5.0,0.0,0.09408903121948242,2.0,h,j,1150
5.0,0.0,,2.0,,h,1151
5.0,1.0,0.20929789543151855,2.0,k,k,1152
5.0,1.0,0.09373021125793457,2.0,l,l,1153
5.0,0.0,,2.0,,k,1154
5.0,1.0,0.11747097969055176,2.0,l,l,1155
5.0,1.0,0.10524988174438477,2.0,h,h,1156
5.0,0.0,0.08932113647460938,2.0,j,k,1157
5.0,0.0,,2.0,,l,1158
5.0,0.0,,2.0,,j,1159
5.0,0.0,,2.0,,h,1160
5.0,1.0,0.07451200485229492,2.0,j,j,1161
5.0,1.0,0.04949212074279785,2.0,l,l,1162
5.0,0.0,0.10070490837097168,2.0,k,j,1163
5.0,0.0,,2.0,,k,1164
5.0,0.0,,2.0,,h,1165
5.0,0.0,,2.0,,j,1166
5.0,1.0,0.21995091438293457,2.0,h,h,1167
5.0,1.0,0.09958910942077637,2.0,j,j,1168
5.0,1.0,0.025151968002319336,2.0,l,l,1169
5.0,1.0,0.054511070251464844,2.0,k,k,1170
5.0,1.0,0.018864154815673828,2.0,h,h,1171
5.0,1.0,0.07632803916931152,2.0,k,k,1172
5.0,1.0,0.0204470157623291,2.0,h,h,1173
5.0,1.0,0.09475493431091309,2.0,j,j,1174
5.0,1.0,0.062107086181640625,2.0,l,l,1175
5.0,1.0,0.06776595115661621,2.0,k,k,1176
5.0,1.0,0.010341882705688477,2.0,l,l,1177
5.0,1.0,0.04567694664001465,2.0,j,j,1178
5.0,0.0,,2.0,,k,1179
5.0,1.0,0.20398902893066406,2.0,h,h,1180
5.0,1.0,0.09002804756164551,2.0,l,l,1181
5.0,0.0,,2.0,,j,1182
5.0,0.0,0.2895660400390625,2.0,k,h,1183
5.0,0.0,0.29126501083374023,2.0,j,k,1184
5.0,1.0,0.2611541748046875,2.0,l,l,1185
5.0,1.0,0.1053018569946289,2.0,k,k,1186
5.0,1.0,0.04427194595336914,2.0,l,l,1187
5.0,1.0,0.09063577651977539,2.0,h,h,1188
5.0,0.0,0.13631701469421387,2.0,j,k,1189
5.0,0.0,,2.0,,l,1190
5.0,1.0,0.11560988426208496,2.0,j,j,1191
5.0,1.0,0.06001996994018555,2.0,h,h,1192
5.0,1.0,0.025738000869750977,2.0,j,j,1193
5.0,1.0,0.14494109153747559,2.0,l,l,1194
5.0,1.0,0.25318098068237305,2.0,j,j,1195
5.0,1.0,0.06902718544006348,2.0,k,k,1196
5.0,1.0,0.08004403114318848,2.0,h,h,1197
5.0,1.0,0.04396510124206543,2.0,j,j,1198
5.0,1.0,0.10638117790222168,2.0,h,h,1199
5.0,1.0,0.07039999961853027,2.0,j,j,1200
5.0,1.0,0.05505704879760742,2.0,l,l,1201
5.0,1.0,0.1057748794555664,2.0,k,k,1202
5.0,1.0,0.11204910278320312,2.0,h,h,1203
5.0,1.0,0.08616900444030762,2.0,k,k,1204
5.0,1.0,0.0839388370513916,2.0,h,h,1205
5.0,1.0,0.045990943908691406,2.0,j,j,1206
5.0,0.0,,2.0,,l,1207
5.0,1.0,0.19118094444274902,2.0,k,k,1208
5.0,1.0,0.001703023910522461,2.0,l,l,1209
5.0,1.0,0.12071800231933594,2.0,j,j,1210
5.0,1.0,0.014946222305297852,2.0,k,k,1211
5.0,1.0,0.07792401313781738,2.0,h,h,1212
5.0,1.0,0.10218691825866699,2.0,l,l,1213
5.0,0.0,,2.0,,j,1214
5.0,0.0,,2.0,,h,1215
5.0,1.0,0.10405588150024414,2.0,k,k,1216
5.0,1.0,0.04052090644836426,2.0,l,l,1217
5.0,1.0,0.13834309577941895,2.0,k,k,1218
5.0,1.0,0.14579105377197266,2.0,l,l,1219
5.0,1.0,0.10997295379638672,2.0,h,h,1220
5.0,1.0,0.11591291427612305,2.0,k,k,1221
5.0,1.0,0.058721065521240234,2.0,l,l,1222
5.0,1.0,0.08970093727111816,2.0,j,j,1223
5.0,1.0,0.037117958068847656,2.0,h,h,1224
5.0,1.0,0.10483598709106445,2.0,j,j,1225
5.0,1.0,0.04868483543395996,2.0,l,l,1226
5.0,1.0,0.09759402275085449,2.0,j,j,1227
5.0,1.0,0.0317530632019043,2.0,k,k,1228
5.0,1.0,0.12826800346374512,2.0,h,h,1229
5.0,1.0,0.0806429386138916,2.0,j,j,1230
5.0,1.0,0.04122614860534668,2.0,h,h,1231
5.0,1.0,0.08208608627319336,2.0,j,j,1232
5.0,1.0,0.018268108367919922,2.0,l,l,1233
5.0,1.0,0.05058598518371582,2.0,k,k,1234
5.0,1.0,0.02677321434020996,2.0,h,h,1235
5.0,1.0,0.07561993598937988,2.0,k,k,1236
5.0,1.0,0.048364877700805664,2.0,h,h,1237
5.0,1.0,0.04249405860900879,2.0,j,j,1238
5.0,1.0,0.03325796127319336,2.0,l,l,1239
5.0,1.0,0.034156084060668945,2.0,k,k,1240
5.0,1.0,0.049407005310058594,2.0,l,l,1241
5.0,1.0,0.0436708927154541,2.0,j,j,1242
5.0,1.0,0.02464008331298828,2.0,k,k,1243
5.0,1.0,0.05743288993835449,2.0,h,h,1244
5.0,1.0,0.05643892288208008,2.0,l,l,1245
5.0,1.0,0.10275793075561523,2.0,j,j,1246
5.0,0.0,,2.0,,h,1247
5.0,1.0,0.1920609474182129,2.0,k,k,1248
5.0,1.0,0.017275094985961914,2.0,l,l,1249
5.0,1.0,0.15051007270812988,2.0,k,k,1250
5.0,1.0,0.04921102523803711,2.0,l,l,1251
5.0,1.0,0.19379496574401855,2.0,h,h,1252
5.0,1.0,0.08014202117919922,2.0,k,k,1253
5.0,0.0,,2.0,,l,1254
5.0,1.0,0.0038950443267822266,2.0,j,j,1255
5.0,1.0,0.07354617118835449,2.0,h,h,1256
5.0,1.0,0.05567502975463867,2.0,j,j,1257
5.0,0.0,0.11017084121704102,2.0,k,l,1258
5.0,0.0,0.0343170166015625,2.0,l,j,1259
5.0,0.0,,2.0,,k,1260
5.0,1.0,0.2641570568084717,2.0,h,h,1261
5.0,1.0,0.11064696311950684,2.0,j,j,1262
5.0,1.0,0.07482004165649414,2.0,h,h,1263
5.0,1.0,0.02226996421813965,2.0,j,j,1264
5.0,1.0,0.024155855178833008,2.0,l,l,1265
5.0,1.0,0.0416569709777832,2.0,k,k,1266
5.0,1.0,0.0781090259552002,2.0,h,h,1267
5.0,1.0,0.050256967544555664,2.0,k,k,1268
5.0,1.0,0.031620025634765625,2.0,h,h,1269
5.0,1.0,0.04161190986633301,2.0,j,j,1270
5.0,1.0,0.02782607078552246,2.0,l,l,1271
5.0,1.0,0.05996894836425781,2.0,k,k,1272
5.0,0.0,,2.0,,l,1273
5.0,1.0,0.09291696548461914,2.0,j,j,1274
5.0,1.0,0.06919407844543457,2.0,k,k,1275
5.0,1.0,0.03642988204956055,2.0,h,h,1276
5.0,0.0,,2.0,,l,1277
5.0,0.0,,2.0,,j,1278
5.0,1.0,0.14409804344177246,2.0,h,h,1279
5.0,1.0,0.10177993774414062,2.0,k,k,1280
6.0,1.0,0.4574570655822754,1.0,j,j,1281
6.0,1.0,0.3523268699645996,1.0,l,l,1282
6.0,1.0,0.2824821472167969,1.0,k,k,1283
6.0,1.0,0.3038909435272217,1.0,l,l,1284
6.0,0.0,0.34335803985595703,1.0,j,h,1285
6.0,1.0,0.3982510566711426,1.0,k,k,1286
6.0,1.0,0.4888119697570801,1.0,j,j,1287
6.0,1.0,0.32031893730163574,1.0,k,k,1288
6.0,1.0,0.43352198600769043,1.0,h,h,1289
6.0,1.0,0.5175120830535889,1.0,l,l,1290
6.0,1.0,0.49054908752441406,1.0,h,h,1291
6.0,1.0,0.36741209030151367,1.0,l,l,1292
6.0,0.0,0.4368898868560791,1.0,k,j,1293
6.0,1.0,0.5346379280090332,1.0,h,h,1294
6.0,1.0,0.3293130397796631,1.0,j,j,1295
6.0,0.0,0.40067577362060547,1.0,k,l,1296
6.0,1.0,0.35385608673095703,1.0,k,k,1297
6.0,1.0,0.3252990245819092,1.0,l,l,1298
6.0,1.0,0.3585851192474365,1.0,j,j,1299
6.0,1.0,0.31835007667541504,1.0,k,k,1300
6.0,1.0,0.3317999839782715,1.0,l,l,1301
6.0,1.0,0.417957067489624,1.0,k,k,1302
6.0,1.0,0.4485008716583252,1.0,h,h,1303
6.0,0.0,0.39685583114624023,1.0,k,l,1304
6.0,1.0,0.545698881149292,1.0,k,k,1305
6.0,1.0,0.43060779571533203,1.0,j,j,1306
6.0,1.0,0.4571220874786377,1.0,h,h,1307
6.0,1.0,0.39422607421875,1.0,l,l,1308
6.0,1.0,0.46240806579589844,1.0,j,j,1309
6.0,1.0,0.48103809356689453,1.0,l,l,1310
6.0,1.0,0.4193081855773926,1.0,j,j,1311
6.0,1.0,0.437669038772583,1.0,l,l,1312
6.0,1.0,0.5262291431427002,1.0,h,h,1313
6.0,1.0,0.4291090965270996,1.0,l,l,1314
6.0,1.0,0.46080994606018066,1.0,h,h,1315
6.0,1.0,0.4812459945678711,1.0,j,j,1316
6.0,1.0,0.49318385124206543,1.0,h,h,1317
6.0,1.0,0.4093599319458008,1.0,k,k,1318
6.0,1.0,0.5099101066589355,1.0,h,h,1319
6.0,1.0,0.4514648914337158,1.0,k,k,1320
6.0,1.0,0.3660268783569336,1.0,l,l,1321
6.0,1.0,0.39467287063598633,1.0,k,k,1322
6.0,1.0,0.6566457748413086,1.0,h,h,1323
6.0,1.0,0.41161417961120605,1.0,k,k,1324
6.0,1.0,0.43097805976867676,1.0,h,h,1325
6.0,1.0,0.47290492057800293,1.0,l,l,1326
6.0,1.0,0.4264559745788574,1.0,j,j,1327
6.0,1.0,0.32905006408691406,1.0,k,k,1328
6.0,1.0,0.4311251640319824,1.0,l,l,1329
6.0,1.0,0.3476741313934326,1.0,k,k,1330
6.0,1.0,0.37272000312805176,1.0,j,j,1331
6.0,1.0,0.3307969570159912,1.0,k,k,1332
6.0,1.0,0.43248605728149414,1.0,l,l,1333
6.0,1.0,0.5190010070800781,1.0,k,k,1334
6.0,1.0,0.43733882904052734,1.0,h,h,1335
6.0,1.0,0.46914005279541016,1.0,l,l,1336
6.0,1.0,0.5130219459533691,1.0,k,k,1337
6.0,1.0,0.47609901428222656,1.0,h,h,1338
6.0,0.0,0.5097811222076416,1.0,h,j,1339
6.0,1.0,0.3384239673614502,1.0,l,l,1340
6.0,1.0,0.5250389575958252,1.0,h,h,1341
6.0,1.0,0.38292407989501953,1.0,k,k,1342
6.0,0.0,0.4001460075378418,1.0,k,j,1343
6.0,1.0,0.27819395065307617,1.0,k,k,1344
6.0,1.0,0.4265620708465576,1.0,h,h,1345
6.0,1.0,0.42971014976501465,1.0,k,k,1346
6.0,1.0,0.5515158176422119,1.0,l,l,1347
6.0,1.0,0.451977014541626,1.0,k,k,1348
6.0,1.0,0.46706604957580566,1.0,h,h,1349
6.0,1.0,0.4608449935913086,1.0,l,l,1350
6.0,1.0,0.4304490089416504,1.0,h,h,1351
6.0,0.0,0.35677409172058105,1.0,k,l,1352
6.0,1.0,0.4005699157714844,1.0,k,k,1353
6.0,1.0,0.4255681037902832,1.0,l,l,1354
6.0,1.0,0.3483011722564697,1.0,k,k,1355
6.0,1.0,0.32854485511779785,1.0,l,l,1356
6.0,1.0,0.45048999786376953,1.0,k,k,1357
6.0,1.0,0.4355449676513672,1.0,h,h,1358
6.0,1.0,0.35141611099243164,1.0,l,l,1359
6.0,1.0,0.3787097930908203,1.0,h,h,1360
6.0,0.0,0.44469213485717773,1.0,k,j,1361
6.0,1.0,0.3885459899902344,1.0,l,l,1362
6.0,1.0,0.4602508544921875,1.0,j,j,1363
6.0,1.0,0.3898739814758301,1.0,k,k,1364
6.0,1.0,0.5117640495300293,1.0,h,h,1365
6.0,1.0,0.35530900955200195,1.0,k,k,1366
6.0,1.0,0.51055908203125,1.0,l,l,1367
6.0,1.0,0.4904289245605469,1.0,h,h,1368
6.0,0.0,0.41190481185913086,1.0,l,k,1369
6.0,1.0,0.3590710163116455,1.0,l,l,1370
6.0,0.0,0.4441049098968506,1.0,j,h,1371
6.0,1.0,0.40745115280151367,1.0,l,l,1372
6.0,1.0,0.4523918628692627,1.0,h,h,1373
6.0,1.0,0.4227421283721924,1.0,l,l,1374
6.0,1.0,0.47128915786743164,1.0,h,h,1375
6.0,0.0,0.46970701217651367,1.0,j,l,1376
6.0,1.0,0.31604814529418945,1.0,h,h,1377
6.0,1.0,0.464385986328125,1.0,j,j,1378
6.0,0.0,0.3928229808807373,1.0,k,l,1379
6.0,1.0,0.5482752323150635,1.0,j,j,1380
6.0,1.0,0.4586930274963379,1.0,h,h,1381
6.0,1.0,0.4438159465789795,1.0,k,k,1382
6.0,1.0,0.5558650493621826,1.0,j,j,1383
6.0,1.0,0.4878809452056885,1.0,k,k,1384
6.0,1.0,0.4474170207977295,1.0,h,h,1385
6.0,1.0,0.43245601654052734,1.0,l,l,1386
6.0,1.0,0.35907983779907227,1.0,h,h,1387
6.0,1.0,0.31378817558288574,1.0,l,l,1388
6.0,1.0,0.3419618606567383,1.0,h,h,1389
6.0,1.0,0.43814611434936523,1.0,j,j,1390
6.0,1.0,0.3451077938079834,1.0,h,h,1391
6.0,1.0,0.5403170585632324,1.0,j,j,1392
6.0,1.0,0.5067660808563232,1.0,l,l,1393
6.0,1.0,0.45395708084106445,1.0,h,h,1394
6.0,1.0,0.45221900939941406,1.0,j,j,1395
6.0,1.0,0.38198304176330566,1.0,h,h,1396
6.0,1.0,0.3932619094848633,1.0,l,l,1397
6.0,1.0,0.47047901153564453,1.0,k,k,1398
6.0,1.0,0.46891188621520996,1.0,h,h,1399
6.0,1.0,0.5321340560913086,1.0,l,l,1400
6.0,1.0,0.3390650749206543,1.0,h,h,1401
6.0,0.0,0.4707338809967041,1.0,k,j,1402
6.0,1.0,0.4426839351654053,1.0,l,l,1403
6.0,1.0,0.39458298683166504,1.0,h,h,1404
6.0,1.0,0.530858039855957,1.0,k,k,1405
6.0,1.0,0.4424409866333008,1.0,l,l,1406
6.0,1.0,0.37479114532470703,1.0,k,k,1407
6.0,1.0,0.4478940963745117,1.0,h,h,1408
6.0,1.0,0.5733060836791992,1.0,j,j,1409
6.0,1.0,0.4360790252685547,1.0,k,k,1410
6.0,1.0,0.38765883445739746,1.0,l,l,1411
6.0,1.0,0.46941089630126953,1.0,j,j,1412
6.0,1.0,0.41310691833496094,1.0,k,k,1413
6.0,1.0,0.3813669681549072,1.0,l,l,1414
6.0,1.0,0.35773396492004395,1.0,k,k,1415
6.0,1.0,0.45819807052612305,1.0,h,h,1416
6.0,1.0,0.4580681324005127,1.0,k,k,1417
6.0,1.0,0.4882030487060547,1.0,j,j,1418
6.0,1.0,0.46457481384277344,1.0,h,h,1419
6.0,1.0,0.5431370735168457,1.0,j,j,1420
6.0,0.0,0.3848700523376465,1.0,k,l,1421
6.0,1.0,0.45009899139404297,1.0,k,k,1422
6.0,1.0,0.5205869674682617,1.0,j,j,1423
6.0,1.0,0.4791591167449951,1.0,h,h,1424
6.0,1.0,0.5011110305786133,1.0,j,j,1425
6.0,1.0,0.5007550716400146,1.0,h,h,1426
6.0,1.0,0.5414218902587891,1.0,l,l,1427
6.0,1.0,0.473085880279541,1.0,k,k,1428
6.0,1.0,0.42162394523620605,1.0,l,l,1429
6.0,0.0,0.43462181091308594,1.0,k,j,1430
6.0,1.0,0.5152649879455566,1.0,h,h,1431
6.0,1.0,0.42855095863342285,1.0,k,k,1432
6.0,1.0,0.5058319568634033,1.0,h,h,1433
6.0,1.0,0.4855990409851074,1.0,j,j,1434
6.0,1.0,0.387052059173584,1.0,k,k,1435
6.0,0.0,0.5141630172729492,1.0,l,j,1436
6.0,1.0,0.5009219646453857,1.0,h,h,1437
6.0,1.0,0.5564048290252686,1.0,k,k,1438
6.0,1.0,0.5014040470123291,1.0,j,j,1439
6.0,1.0,0.4666569232940674,1.0,l,l,1440
6.0,1.0,0.48506808280944824,1.0,h,h,1441
6.0,1.0,0.6572730541229248,1.0,l,l,1442
6.0,1.0,0.4825730323791504,1.0,k,k,1443
6.0,1.0,0.45969510078430176,1.0,h,h,1444
6.0,1.0,0.5193240642547607,1.0,l,l,1445
6.0,1.0,0.3677711486816406,1.0,k,k,1446
6.0,1.0,0.6064140796661377,1.0,j,j,1447
6.0,1.0,0.5071301460266113,1.0,k,k,1448
6.0,1.0,0.4065859317779541,1.0,l,l,1449
6.0,1.0,0.487170934677124,1.0,j,j,1450
6.0,1.0,0.46352410316467285,1.0,h,h,1451
6.0,1.0,0.4621589183807373,1.0,k,k,1452
6.0,1.0,0.3923931121826172,1.0,l,l,1453
6.0,0.0,0.41209888458251953,1.0,k,j,1454
6.0,1.0,0.47955989837646484,1.0,l,l,1455
6.0,1.0,0.5012590885162354,1.0,h,h,1456
6.0,1.0,0.44098591804504395,1.0,k,k,1457
6.0,1.0,0.44301295280456543,1.0,h,h,1458
6.0,0.0,0.4365808963775635,1.0,k,j,1459
6.0,1.0,0.575423002243042,1.0,h,h,1460
6.0,1.0,0.4741020202636719,1.0,k,k,1461
6.0,1.0,0.4524989128112793,1.0,l,l,1462
6.0,1.0,0.47229814529418945,1.0,k,k,1463
6.0,0.0,0.4806239604949951,1.0,k,l,1464
6.0,0.0,0.48615217208862305,1.0,j,k,1465
6.0,1.0,0.4770510196685791,1.0,l,l,1466
6.0,1.0,0.500201940536499,1.0,j,j,1467
6.0,1.0,0.4752178192138672,1.0,k,k,1468
6.0,1.0,0.5240728855133057,1.0,j,j,1469
6.0,1.0,0.5425460338592529,1.0,h,h,1470
6.0,0.0,0.4764378070831299,1.0,k,l,1471
6.0,1.0,0.541935920715332,1.0,h,h,1472
6.0,0.0,0.5237729549407959,1.0,k,j,1473
6.0,1.0,0.49040699005126953,1.0,h,h,1474
6.0,0.0,0.5076351165771484,1.0,k,j,1475
6.0,1.0,0.5012221336364746,1.0,h,h,1476
6.0,1.0,0.4161839485168457,1.0,l,l,1477
6.0,0.0,0.6102719306945801,1.0,k,j,1478
6.0,1.0,0.4538149833679199,1.0,l,l,1479
6.0,1.0,0.43433499336242676,1.0,k,k,1480
6.0,1.0,0.38034701347351074,1.0,l,l,1481
6.0,1.0,0.42745113372802734,1.0,h,h,1482
6.0,1.0,0.35022997856140137,1.0,j,j,1483
6.0,1.0,0.34507203102111816,1.0,h,h,1484
6.0,1.0,0.4221680164337158,1.0,l,l,1485
6.0,1.0,0.4405081272125244,1.0,h,h,1486
6.0,1.0,0.35669589042663574,1.0,l,l,1487
6.0,1.0,0.4470808506011963,1.0,j,j,1488
6.0,1.0,0.5824108123779297,1.0,l,l,1489
6.0,1.0,0.38888120651245117,1.0,k,k,1490
6.0,1.0,0.4206349849700928,1.0,l,l,1491
6.0,1.0,0.42430615425109863,1.0,h,h,1492
6.0,1.0,0.51279616355896,1.0,l,l,1493
6.0,1.0,0.6517140865325928,1.0,j,j,1494
6.0,1.0,0.48691701889038086,1.0,k,k,1495
6.0,1.0,0.5134890079498291,1.0,l,l,1496
6.0,1.0,0.4973170757293701,1.0,j,j,1497
6.0,1.0,0.49722790718078613,1.0,l,l,1498
6.0,1.0,0.411998987197876,1.0,k,k,1499
6.0,1.0,0.42264795303344727,1.0,h,h,1500
6.0,1.0,0.40076112747192383,1.0,l,l,1501
6.0,1.0,0.4660508632659912,1.0,j,j,1502
6.0,1.0,0.43909406661987305,1.0,l,l,1503
6.0,1.0,0.6365451812744141,1.0,k,k,1504
6.0,1.0,0.4782381057739258,1.0,j,j,1505
6.0,1.0,0.473721981048584,1.0,h,h,1506
6.0,1.0,0.6056480407714844,1.0,k,k,1507
6.0,1.0,0.4407172203063965,1.0,l,l,1508
6.0,1.0,0.45706701278686523,1.0,k,k,1509
6.0,1.0,0.5077250003814697,1.0,h,h,1510
6.0,1.0,0.4325590133666992,1.0,l,l,1511
6.0,1.0,0.46917200088500977,1.0,j,j,1512
6.0,1.0,0.44271302223205566,1.0,l,l,1513
6.0,1.0,0.50459885597229,1.0,j,j,1514
6.0,1.0,0.45975279808044434,1.0,k,k,1515
6.0,1.0,0.7100331783294678,1.0,h,h,1516
6.0,0.0,0.4853811264038086,1.0,k,j,1517
6.0,1.0,0.42581701278686523,1.0,h,h,1518
6.0,1.0,0.46898794174194336,1.0,l,l,1519
6.0,1.0,0.4427309036254883,1.0,k,k,1520
6.0,0.0,0.459381103515625,1.0,k,j,1521
6.0,1.0,0.41993284225463867,1.0,k,k,1522
6.0,0.0,0.4364640712738037,1.0,k,j,1523
6.0,1.0,0.4773368835449219,1.0,h,h,1524
6.0,1.0,0.4102969169616699,1.0,k,k,1525
6.0,1.0,0.5008680820465088,1.0,h,h,1526
6.0,1.0,0.5007460117340088,1.0,j,j,1527
6.0,1.0,0.431229829788208,1.0,k,k,1528
6.0,1.0,0.5232830047607422,1.0,j,j,1529
6.0,1.0,0.43616700172424316,1.0,l,l,1530
6.0,1.0,0.45806288719177246,1.0,j,j,1531
6.0,1.0,0.3785421848297119,1.0,k,k,1532
6.0,1.0,0.4247550964355469,1.0,h,h,1533
6.0,1.0,0.5935871601104736,1.0,j,j,1534
6.0,1.0,0.5509989261627197,1.0,k,k,1535
6.0,1.0,0.33057594299316406,1.0,l,l,1536
7.0,0.0,0.3861699104309082,2.0,j,k,1537
7.0,1.0,0.32818007469177246,2.0,l,l,1538
7.0,1.0,0.4397711753845215,2.0,j,j,1539
7.0,0.0,0.5484201908111572,2.0,j,h,1540
7.0,1.0,0.3348357677459717,2.0,j,j,1541
7.0,1.0,0.4566659927368164,2.0,l,l,1542
7.0,1.0,0.44727587699890137,2.0,j,j,1543
7.0,1.0,0.49724316596984863,2.0,k,k,1544
7.0,1.0,0.35744500160217285,2.0,h,h,1545
7.0,1.0,0.16665196418762207,2.0,j,j,1546
7.0,1.0,0.10952901840209961,2.0,h,h,1547
7.0,1.0,0.17400407791137695,2.0,j,j,1548
7.0,1.0,0.05615115165710449,2.0,l,l,1549
7.0,1.0,0.06305408477783203,2.0,k,k,1550
7.0,1.0,0.8753030300140381,2.0,h,h,1551
7.0,1.0,0.06286001205444336,2.0,k,k,1552
7.0,1.0,0.09060502052307129,2.0,h,h,1553
7.0,1.0,0.11157107353210449,2.0,j,j,1554
7.0,1.0,0.05058002471923828,2.0,l,l,1555
7.0,1.0,0.07000207901000977,2.0,k,k,1556
7.0,1.0,0.5187628269195557,2.0,l,l,1557
7.0,1.0,0.031558990478515625,2.0,j,j,1558
7.0,1.0,0.037078857421875,2.0,k,k,1559
7.0,1.0,0.10271787643432617,2.0,h,h,1560
7.0,0.0,0.44298315048217773,2.0,k,l,1561
7.0,1.0,0.2524299621582031,2.0,j,j,1562
7.0,1.0,0.3277089595794678,2.0,h,h,1563
7.0,1.0,0.4012620449066162,2.0,k,k,1564
7.0,1.0,0.15027379989624023,2.0,l,l,1565
7.0,1.0,0.07453393936157227,2.0,k,k,1566
7.0,1.0,0.05739712715148926,2.0,l,l,1567
7.0,1.0,0.33231592178344727,2.0,h,h,1568
7.0,1.0,0.14801502227783203,2.0,k,k,1569
7.0,1.0,0.05233192443847656,2.0,l,l,1570
7.0,1.0,0.2722458839416504,2.0,j,j,1571
7.0,1.0,0.2001478672027588,2.0,h,h,1572
7.0,1.0,0.5455639362335205,2.0,j,j,1573
7.0,1.0,0.4105520248413086,2.0,l,l,1574
7.0,1.0,0.06477713584899902,2.0,j,j,1575
7.0,1.0,0.07218098640441895,2.0,k,k,1576
7.0,1.0,0.025246143341064453,2.0,h,h,1577
7.0,1.0,0.1019139289855957,2.0,j,j,1578
7.0,1.0,0.09177398681640625,2.0,h,h,1579
7.0,1.0,0.08275818824768066,2.0,j,j,1580
7.0,1.0,0.04345989227294922,2.0,l,l,1581
7.0,1.0,0.0298001766204834,2.0,k,k,1582
7.0,1.0,0.015329122543334961,2.0,h,h,1583
7.0,1.0,0.027432918548583984,2.0,k,k,1584
7.0,1.0,0.030297040939331055,2.0,h,h,1585
7.0,1.0,0.0311739444732666,2.0,j,j,1586
7.0,1.0,0.056571006774902344,2.0,l,l,1587
7.0,1.0,0.016240835189819336,2.0,k,k,1588
7.0,1.0,0.39900708198547363,2.0,l,l,1589
7.0,1.0,0.1757678985595703,2.0,j,j,1590
7.0,1.0,0.046788930892944336,2.0,k,k,1591
7.0,1.0,0.07079911231994629,2.0,h,h,1592
7.0,1.0,0.29381394386291504,2.0,l,l,1593
7.0,1.0,0.16016101837158203,2.0,j,j,1594
7.0,1.0,0.4051969051361084,2.0,h,h,1595
7.0,1.0,0.13399195671081543,2.0,k,k,1596
7.0,1.0,0.30576610565185547,2.0,l,l,1597
7.0,1.0,0.08541989326477051,2.0,k,k,1598
7.0,1.0,0.046376943588256836,2.0,l,l,1599
7.0,0.0,0.07099604606628418,2.0,j,h,1600
7.0,1.0,0.44268012046813965,2.0,k,k,1601
7.0,1.0,0.10828709602355957,2.0,l,l,1602
7.0,1.0,0.08253598213195801,2.0,j,j,1603
7.0,1.0,0.06885600090026855,2.0,h,h,1604
7.0,1.0,0.07080411911010742,2.0,j,j,1605
7.0,1.0,0.08878898620605469,2.0,l,l,1606
7.0,1.0,0.10518693923950195,2.0,j,j,1607
7.0,1.0,0.0741429328918457,2.0,k,k,1608
7.0,1.0,0.04152393341064453,2.0,h,h,1609
7.0,1.0,0.06517982482910156,2.0,j,j,1610
7.0,1.0,0.05537605285644531,2.0,h,h,1611
7.0,1.0,0.07974410057067871,2.0,j,j,1612
7.0,1.0,0.040493011474609375,2.0,l,l,1613
7.0,1.0,0.052134037017822266,2.0,k,k,1614
7.0,1.0,0.055390119552612305,2.0,h,h,1615
7.0,1.0,0.024476051330566406,2.0,k,k,1616
7.0,1.0,0.08208990097045898,2.0,h,h,1617
7.0,1.0,0.04297900199890137,2.0,j,j,1618
7.0,1.0,0.024688005447387695,2.0,l,l,1619
7.0,1.0,0.09147500991821289,2.0,k,k,1620
7.0,1.0,0.052371978759765625,2.0,l,l,1621
7.0,1.0,0.04240918159484863,2.0,j,j,1622
7.0,1.0,0.06756901741027832,2.0,k,k,1623
7.0,1.0,0.0704491138458252,2.0,h,h,1624
7.0,1.0,0.06806015968322754,2.0,l,l,1625
7.0,1.0,0.31629395484924316,2.0,j,j,1626
7.0,1.0,0.18410611152648926,2.0,h,h,1627
7.0,1.0,0.08488583564758301,2.0,k,k,1628
7.0,1.0,0.025899887084960938,2.0,l,l,1629
7.0,1.0,0.08816289901733398,2.0,k,k,1630
7.0,1.0,0.024258136749267578,2.0,l,l,1631
7.0,1.0,0.126906156539917,2.0,h,h,1632
7.0,1.0,0.07421398162841797,2.0,k,k,1633
7.0,1.0,0.04702591896057129,2.0,l,l,1634
7.0,1.0,0.06600093841552734,2.0,j,j,1635
7.0,1.0,0.023591041564941406,2.0,h,h,1636
7.0,1.0,0.0764777660369873,2.0,j,j,1637
7.0,1.0,0.37486815452575684,2.0,l,l,1638
7.0,1.0,0.14261507987976074,2.0,j,j,1639
7.0,1.0,0.08342790603637695,2.0,k,k,1640
7.0,1.0,0.04442310333251953,2.0,h,h,1641
7.0,1.0,0.07526898384094238,2.0,j,j,1642
7.0,1.0,0.057446956634521484,2.0,h,h,1643
7.0,1.0,0.1018071174621582,2.0,j,j,1644
7.0,1.0,0.04135704040527344,2.0,l,l,1645
7.0,1.0,0.06724810600280762,2.0,k,k,1646
7.0,1.0,0.07421016693115234,2.0,h,h,1647
7.0,1.0,0.05192899703979492,2.0,k,k,1648
7.0,1.0,0.03147387504577637,2.0,h,h,1649
7.0,1.0,0.07692599296569824,2.0,j,j,1650
7.0,1.0,0.05463910102844238,2.0,l,l,1651
7.0,1.0,0.03877997398376465,2.0,k,k,1652
7.0,1.0,0.05947709083557129,2.0,l,l,1653
7.0,1.0,0.05918383598327637,2.0,j,j,1654
7.0,1.0,0.04347681999206543,2.0,k,k,1655
7.0,1.0,0.08887004852294922,2.0,h,h,1656
7.0,1.0,0.4008500576019287,2.0,l,l,1657
7.0,1.0,0.37108898162841797,2.0,j,j,1658
7.0,1.0,0.07862401008605957,2.0,h,h,1659
7.0,1.0,0.07048702239990234,2.0,k,k,1660
7.0,1.0,0.06377696990966797,2.0,l,l,1661
7.0,1.0,0.0659019947052002,2.0,k,k,1662
7.0,1.0,0.058943986892700195,2.0,l,l,1663
7.0,1.0,0.08323192596435547,2.0,h,h,1664
7.0,1.0,0.18903493881225586,2.0,k,k,1665
7.0,1.0,0.06989097595214844,2.0,l,l,1666
7.0,1.0,0.16984820365905762,2.0,j,j,1667
7.0,1.0,0.050581932067871094,2.0,h,h,1668
7.0,1.0,0.2598459720611572,2.0,j,j,1669
7.0,1.0,0.3344559669494629,2.0,l,l,1670
7.0,1.0,0.1512000560760498,2.0,j,j,1671
7.0,1.0,0.04212188720703125,2.0,k,k,1672
7.0,1.0,0.010545969009399414,2.0,h,h,1673
7.0,1.0,0.035076141357421875,2.0,j,j,1674
7.0,1.0,0.015709877014160156,2.0,h,h,1675
7.0,1.0,0.02824687957763672,2.0,j,j,1676
7.0,1.0,0.0005638599395751953,2.0,l,l,1677
7.0,1.0,0.03474998474121094,2.0,k,k,1678
7.0,1.0,0.010888099670410156,2.0,h,h,1679
7.0,1.0,0.015004873275756836,2.0,k,k,1680
7.0,1.0,0.0024018287658691406,2.0,h,h,1681
7.0,1.0,0.03345990180969238,2.0,j,j,1682
7.0,1.0,0.3883178234100342,2.0,l,l,1683
7.0,1.0,0.03392910957336426,2.0,k,k,1684
7.0,1.0,0.019947052001953125,2.0,l,l,1685
7.0,1.0,0.05749392509460449,2.0,j,j,1686
7.0,1.0,0.02617192268371582,2.0,k,k,1687
7.0,1.0,0.033818960189819336,2.0,h,h,1688
7.0,1.0,0.33524298667907715,2.0,l,l,1689
7.0,1.0,0.26201319694519043,2.0,j,j,1690
7.0,1.0,0.07618403434753418,2.0,h,h,1691
7.0,1.0,0.04809308052062988,2.0,k,k,1692
7.0,1.0,0.17817997932434082,2.0,l,l,1693
7.0,1.0,0.07060909271240234,2.0,k,k,1694
7.0,1.0,0.0032100677490234375,2.0,l,l,1695
7.0,1.0,0.10757589340209961,2.0,h,h,1696
7.0,1.0,0.016026973724365234,2.0,k,k,1697
7.0,1.0,0.033859968185424805,2.0,l,l,1698
7.0,1.0,0.0099639892578125,2.0,j,j,1699
7.0,1.0,0.048774003982543945,2.0,h,h,1700
7.0,0.0,0.34342384338378906,2.0,l,j,1701
7.0,1.0,0.42911505699157715,2.0,l,l,1702
7.0,1.0,0.4862089157104492,2.0,j,j,1703
7.0,1.0,0.06705307960510254,2.0,k,k,1704
7.0,1.0,0.0445551872253418,2.0,h,h,1705
7.0,1.0,0.03975987434387207,2.0,j,j,1706
7.0,1.0,0.050956010818481445,2.0,h,h,1707
7.0,1.0,0.4856607913970947,2.0,j,j,1708
7.0,1.0,0.08244109153747559,2.0,l,l,1709
7.0,1.0,0.1382131576538086,2.0,k,k,1710
7.0,1.0,0.1744999885559082,2.0,h,h,1711
7.0,1.0,0.056761980056762695,2.0,k,k,1712
7.0,1.0,0.01188802719116211,2.0,h,h,1713
7.0,1.0,0.05063199996948242,2.0,j,j,1714
7.0,1.0,0.032523155212402344,2.0,l,l,1715
7.0,1.0,0.03535103797912598,2.0,k,k,1716
7.0,1.0,0.04937601089477539,2.0,l,l,1717
7.0,1.0,0.038442134857177734,2.0,j,j,1718
7.0,1.0,0.3500227928161621,2.0,k,k,1719
7.0,1.0,0.09435081481933594,2.0,h,h,1720
7.0,1.0,0.15558314323425293,2.0,l,l,1721
7.0,1.0,0.32012081146240234,2.0,j,j,1722
7.0,1.0,0.07304883003234863,2.0,h,h,1723
7.0,1.0,0.07546019554138184,2.0,k,k,1724
7.0,1.0,0.02824687957763672,2.0,l,l,1725
7.0,1.0,0.06047797203063965,2.0,k,k,1726
7.0,1.0,0.38069796562194824,2.0,l,l,1727
7.0,0.0,0.4492790699005127,2.0,j,h,1728
7.0,1.0,0.43550896644592285,2.0,k,k,1729
7.0,1.0,0.10671401023864746,2.0,l,l,1730
7.0,1.0,0.0763249397277832,2.0,j,j,1731
7.0,0.0,0.18856501579284668,2.0,l,h,1732
7.0,1.0,0.20573806762695312,2.0,j,j,1733
7.0,1.0,0.11307692527770996,2.0,l,l,1734
7.0,1.0,0.0007009506225585938,2.0,j,j,1735
7.0,1.0,0.07500505447387695,2.0,k,k,1736
7.0,1.0,0.01726222038269043,2.0,h,h,1737
7.0,1.0,0.4208052158355713,2.0,j,j,1738
7.0,1.0,0.13322901725769043,2.0,h,h,1739
7.0,1.0,0.07443714141845703,2.0,j,j,1740
7.0,1.0,0.1519148349761963,2.0,l,l,1741
7.0,1.0,0.16639113426208496,2.0,k,k,1742
7.0,1.0,0.6405818462371826,2.0,h,h,1743
7.0,1.0,0.27198314666748047,2.0,k,k,1744
7.0,1.0,0.13438987731933594,2.0,h,h,1745
7.0,1.0,0.3960549831390381,2.0,j,j,1746
7.0,1.0,0.37635087966918945,2.0,l,l,1747
7.0,1.0,0.5148501396179199,2.0,k,k,1748
7.0,1.0,0.07227778434753418,2.0,l,l,1749
7.0,1.0,0.07000494003295898,2.0,j,j,1750
7.0,1.0,0.04756903648376465,2.0,k,k,1751
7.0,1.0,0.03176712989807129,2.0,h,h,1752
7.0,1.0,0.08273100852966309,2.0,l,l,1753
7.0,1.0,0.19398784637451172,2.0,j,j,1754
7.0,1.0,0.05947399139404297,2.0,h,h,1755
7.0,1.0,0.04894399642944336,2.0,k,k,1756
7.0,1.0,0.023140907287597656,2.0,l,l,1757
7.0,1.0,0.06075596809387207,2.0,k,k,1758
7.0,1.0,0.10967707633972168,2.0,l,l,1759
7.0,1.0,0.46015405654907227,2.0,h,h,1760
7.0,1.0,0.4452199935913086,2.0,k,k,1761
7.0,1.0,0.12620186805725098,2.0,l,l,1762
7.0,1.0,0.0637819766998291,2.0,j,j,1763
7.0,1.0,0.031301021575927734,2.0,h,h,1764
7.0,1.0,0.06698393821716309,2.0,j,j,1765
7.0,1.0,0.03453803062438965,2.0,l,l,1766
7.0,1.0,0.03529214859008789,2.0,j,j,1767
7.0,1.0,0.04611706733703613,2.0,k,k,1768
7.0,1.0,0.4913959503173828,2.0,h,h,1769
7.0,1.0,0.06795001029968262,2.0,j,j,1770
7.0,1.0,0.03490185737609863,2.0,h,h,1771
7.0,1.0,0.06059408187866211,2.0,j,j,1772
7.0,1.0,0.0402219295501709,2.0,l,l,1773
7.0,1.0,0.05103015899658203,2.0,k,k,1774
7.0,1.0,0.5210239887237549,2.0,h,h,1775
7.0,1.0,0.04829597473144531,2.0,k,k,1776
7.0,1.0,0.032737016677856445,2.0,h,h,1777
7.0,1.0,0.0637521743774414,2.0,j,j,1778
7.0,1.0,0.05151700973510742,2.0,l,l,1779
7.0,1.0,0.045413970947265625,2.0,k,k,1780
7.0,1.0,0.011564016342163086,2.0,l,l,1781
7.0,1.0,0.045803070068359375,2.0,j,j,1782
7.0,1.0,0.02987813949584961,2.0,k,k,1783
7.0,1.0,0.3913609981536865,2.0,h,h,1784
7.0,1.0,0.23758292198181152,2.0,l,l,1785
7.0,1.0,0.2942509651184082,2.0,j,j,1786
7.0,1.0,0.07509684562683105,2.0,h,h,1787
7.0,1.0,0.049453020095825195,2.0,k,k,1788
7.0,1.0,0.056826114654541016,2.0,l,l,1789
7.0,1.0,0.021844863891601562,2.0,k,k,1790
7.0,1.0,0.023211002349853516,2.0,l,l,1791
7.0,0.0,0.10152006149291992,2.0,j,h,1792
